time,wristR,elbowR,shoulderR,thoraxR,axillaR,scapulaR,backR,backL,scapulaL,axillaL,thoraxL,shoulderL,elbowL,wristL,accelX,accelY,accelZ,gyroX,gyroY,gyroZ
22:57:11.904,211,480,639,254,477,749,353,311,614,435,223,534,550,244,428,-8140,-1156,79,-861,-26
22:57:11.938,210,478,640,252,478,749,353,311,614,434,223,536,551,244,508,-8132,-1100,153,-963,22
22:57:12.256,210,480,638,253,479,748,352,310,611,434,222,535,549,244,28,-8272,-1516,186,-1012,94
22:57:12.256,210,480,638,253,479,748,352,310,611,434,222,535,549,244,28,-8272,-1516,186,-1012,94
22:57:12.257,210,480,638,253,479,748,352,310,611,434,222,535,549,244,28,-8272,-1516,186,-1012,94
22:57:12.257,210,480,638,253,479,748,352,310,611,434,222,535,549,244,28,-8272,-1516,186,-1012,94
22:57:12.257,210,480,638,253,479,748,352,310,611,434,222,535,549,244,28,-8272,-1516,186,-1012,94
22:57:12.257,210,480,638,253,479,748,352,310,611,434,222,535,549,244,28,-8272,-1516,186,-1012,94
22:57:12.257,210,480,638,253,479,748,352,310,611,434,222,535,549,244,28,-8272,-1516,186,-1012,94
22:57:12.257,210,480,638,253,479,748,352,310,611,434,222,535,549,244,28,-8272,-1516,186,-1012,94
22:57:12.257,210,480,638,253,479,748,352,310,611,434,222,535,549,244,28,-8272,-1516,186,-1012,94
22:57:12.257,210,480,638,253,479,748,352,310,611,434,222,535,549,244,28,-8272,-1516,186,-1012,94
22:57:12.258,210,480,638,253,479,748,352,310,611,434,222,535,549,244,28,-8272,-1516,186,-1012,94
22:57:12.258,210,480,638,253,479,748,352,310,611,434,222,535,549,244,28,-8272,-1516,186,-1012,94
22:57:12.258,210,480,638,253,479,748,352,310,611,434,222,535,549,244,28,-8272,-1516,186,-1012,94
22:57:12.258,210,480,638,253,479,748,352,310,611,434,222,535,549,244,28,-8272,-1516,186,-1012,94
22:57:12.258,210,480,638,253,479,748,352,310,611,434,222,535,549,244,28,-8272,-1516,186,-1012,94
22:57:12.281,210,480,638,253,479,748,352,310,611,434,222,535,549,244,28,-8272,-1516,186,-1012,94
22:57:12.281,210,480,638,253,479,748,352,310,611,434,222,535,549,244,28,-8272,-1516,186,-1012,94
22:57:12.298,210,480,638,253,479,748,352,310,611,434,222,535,549,244,28,-8272,-1516,186,-1012,94
22:57:12.331,210,480,638,253,479,748,352,310,611,434,222,535,549,244,28,-8272,-1516,186,-1012,94
22:57:12.347,208,478,636,251,476,746,348,309,608,435,222,533,548,244,388,-8192,-1452,139,-859,-61
22:57:12.364,209,479,637,253,479,748,352,310,609,434,221,533,548,244,60,-8096,-1176,131,-908,-23
22:57:12.380,209,479,637,253,479,748,352,310,609,434,221,533,548,244,60,-8096,-1176,131,-908,-23
22:57:12.397,209,479,637,253,479,748,352,310,609,434,221,533,548,244,60,-8096,-1176,131,-908,-23
22:57:12.423,209,477,635,254,477,747,349,309,608,434,222,532,548,244,416,-8228,-1152,117,-970,-47
22:57:12.440,209,478,635,252,477,747,350,310,607,434,221,533,551,244,472,-8232,-1512,157,-990,-3
22:57:12.473,210,479,636,254,477,748,351,309,606,433,221,533,547,244,0,-8188,-1068,132,-985,25
22:57:12.490,210,479,636,254,477,748,351,309,606,433,221,533,547,244,0,-8188,-1068,132,-985,25
22:57:12.512,209,478,636,251,477,749,351,310,607,434,222,533,548,244,24,-8184,-1032,134,-929,33
22:57:12.527,209,478,636,251,477,749,351,310,607,434,222,533,548,244,24,-8184,-1032,134,-929,33
22:57:12.537,211,479,637,254,475,744,351,309,606,434,222,532,548,245,8,-8116,-1536,127,-558,17
22:57:12.573,208,479,634,251,478,750,351,310,606,433,222,531,547,244,28,-8240,-1048,115,-909,64
22:57:12.600,210,479,634,253,478,748,351,309,606,433,222,531,548,244,484,-8216,-1500,130,-1010,48
22:57:12.600,210,479,634,253,478,748,351,309,606,433,222,531,548,244,484,-8216,-1500,130,-1010,48
22:57:12.617,210,479,634,253,479,748,351,309,607,433,222,531,546,244,28,-8192,-1536,147,-917,34
22:57:12.643,208,478,634,251,477,746,347,309,606,433,222,531,546,245,0,-8192,-1516,128,-998,-29
22:57:12.660,208,478,634,251,477,746,347,309,606,433,222,531,546,245,0,-8192,-1516,128,-998,-29
22:57:12.693,210,480,632,250,475,748,349,309,606,435,222,532,547,244,16,-8232,-1052,119,-1020,17
22:57:12.710,211,479,633,253,475,747,349,309,605,433,222,532,546,244,488,-8160,-1044,139,-982,-29
22:57:12.726,208,479,632,252,477,749,350,309,603,432,222,532,546,244,44,-8232,-1084,114,-988,-20
22:57:12.756,209,479,633,253,476,746,351,309,605,433,221,532,545,244,48,-8180,-1088,101,-905,-33
22:57:12.773,211,477,633,251,476,748,349,308,605,432,222,532,546,244,436,-8164,-1068,131,-895,-34
22:57:12.784,211,477,633,251,476,748,349,308,605,432,222,532,546,244,436,-8164,-1068,131,-895,-34
22:57:12.801,211,477,633,251,476,748,349,308,605,432,222,532,546,244,436,-8164,-1068,131,-895,-34
22:57:12.817,208,478,632,250,476,747,350,309,606,432,221,532,546,245,32,-8072,-1044,125,-1006,-59
22:57:12.850,210,477,631,252,476,746,349,309,605,432,221,532,546,244,432,-8132,-1124,110,-923,69
22:57:12.867,210,477,631,252,476,746,349,309,605,432,221,532,546,244,432,-8132,-1124,110,-923,69
22:57:12.881,210,477,631,252,476,746,349,309,605,432,221,532,546,244,432,-8132,-1124,110,-923,69
22:57:12.897,210,477,631,252,476,746,349,309,605,432,221,532,546,244,432,-8132,-1124,110,-923,69
22:57:12.922,210,477,631,252,476,746,349,309,605,432,221,532,546,244,432,-8132,-1124,110,-923,69
22:57:12.939,210,477,631,252,476,746,349,309,605,432,221,532,546,244,432,-8132,-1124,110,-923,69
22:57:12.972,210,477,631,252,476,746,349,309,605,432,221,532,546,244,432,-8132,-1124,110,-923,69
22:57:12.988,209,477,631,252,477,745,345,309,605,431,222,531,545,244,8,-8276,-1072,127,-981,20
22:57:13.008,211,478,633,253,477,747,350,309,605,432,222,531,545,244,460,-8184,-1168,37,-980,12
22:57:13.028,210,478,633,250,475,747,350,309,606,432,221,531,545,243,444,-8160,-1100,47,-944,0
22:57:13.045,208,478,652,252,478,754,351,309,611,432,222,535,546,247,36,-8048,-1068,51,-979,5
22:57:13.061,208,486,663,251,479,762,356,311,615,432,221,542,558,245,288,-8032,-612,-143,-957,-86
22:57:13.078,208,486,663,251,479,762,356,311,615,432,221,542,558,245,288,-8032,-612,-143,-957,-86
22:57:13.111,208,486,663,251,479,762,356,311,615,432,221,542,558,245,288,-8032,-612,-143,-957,-86
22:57:13.128,208,486,663,251,479,762,356,311,615,432,221,542,558,245,288,-8032,-612,-143,-957,-86
22:57:13.144,213,504,640,250,475,749,359,315,608,435,222,548,613,249,296,-8460,-580,-232,-267,-6
22:57:13.161,219,523,634,250,477,754,353,316,602,444,221,535,643,250,104,-8248,-816,305,-309,-12
22:57:13.177,219,523,634,250,477,754,353,316,602,444,221,535,643,250,104,-8248,-816,305,-309,-12
22:57:13.203,220,524,637,252,479,750,352,314,620,449,221,543,647,252,120,-8448,-1728,567,-278,-66
22:57:13.220,220,524,637,252,479,750,352,314,620,449,221,543,647,252,120,-8448,-1728,567,-278,-66
22:57:13.253,223,521,644,253,486,748,354,313,647,457,222,552,648,252,-248,-8096,-2048,686,-381,-79
22:57:13.270,223,521,644,253,486,748,354,313,647,457,222,552,648,252,-248,-8096,-2048,686,-381,-79
22:57:13.286,222,521,648,252,488,752,354,315,660,463,223,561,649,251,40,-7924,-1980,840,-39,-25
22:57:13.303,225,521,653,252,492,757,355,315,665,469,223,564,649,251,280,-7580,-1544,662,-169,-17
22:57:13.324,225,522,655,252,492,765,354,315,673,472,224,566,647,252,256,-7708,-2304,629,191,29
22:57:13.349,224,519,660,252,496,772,357,317,679,474,224,570,647,251,476,-7880,-2532,586,83,172
22:57:13.366,224,519,660,252,496,772,357,317,679,474,224,570,647,251,476,-7880,-2532,586,83,172
22:57:13.391,225,527,670,254,500,781,359,322,689,477,226,577,644,250,40,-7748,-2396,520,226,185
22:57:13.408,225,527,670,254,500,781,359,322,689,477,226,577,644,250,40,-7748,-2396,520,226,185
22:57:13.425,223,529,671,252,501,782,360,324,690,476,227,577,645,251,420,-7504,-2140,600,249,213
22:57:13.441,223,529,671,252,501,782,360,324,690,476,227,577,645,251,420,-7504,-2140,600,249,213
22:57:13.457,227,544,674,256,502,776,362,328,693,474,227,578,642,252,488,-7332,-2012,504,40,327
22:57:13.491,229,549,674,255,500,770,359,330,694,473,228,576,640,254,244,-7072,-1708,354,504,386
22:57:13.500,227,555,671,255,495,764,361,331,695,471,228,574,639,253,-1276,-6512,-1056,-437,442,-33
22:57:13.517,227,555,671,255,495,764,361,331,695,471,228,574,639,253,-1276,-6512,-1056,-437,442,-33
22:57:13.550,227,555,671,255,495,764,361,331,695,471,228,574,639,253,-1276,-6512,-1056,-437,442,-33
22:57:13.567,231,550,659,254,491,760,359,333,694,466,227,569,634,254,-236,-6560,-1948,-1047,101,114
22:57:13.583,231,549,656,253,487,757,357,333,695,465,228,569,631,253,108,-6784,-2076,-1046,498,43
22:57:13.600,231,549,656,253,487,757,357,333,695,465,228,569,631,253,108,-6784,-2076,-1046,498,43
22:57:13.625,230,546,653,254,486,755,354,332,701,465,226,565,624,253,-44,-9940,-3056,-1027,912,-5
22:57:13.641,230,546,653,254,486,755,354,332,701,465,226,565,624,253,-44,-9940,-3056,-1027,912,-5
22:57:13.659,231,552,642,253,483,760,352,331,701,461,226,560,623,252,-544,-10328,-3184,-381,262,-91
22:57:13.691,231,552,642,253,483,760,352,331,701,461,226,560,623,252,-544,-10328,-3184,-381,262,-91
22:57:13.708,230,555,637,255,485,763,352,330,700,461,226,556,621,253,-984,-9904,-2416,-181,261,-157
22:57:13.725,230,557,634,253,485,766,349,330,701,462,224,554,619,253,-572,-9948,-2780,-238,702,-126
22:57:13.742,229,559,633,251,485,766,349,331,693,462,225,552,620,253,-864,-9556,-2668,-254,554,-177
22:57:13.766,229,561,631,252,485,761,349,330,690,461,225,547,617,254,-688,-8940,-2432,-173,866,-192
22:57:13.783,231,560,626,254,486,757,349,331,686,462,225,549,617,253,-28,-8420,-1852,-93,1099,-180
22:57:13.800,231,560,626,254,486,757,349,331,686,462,225,549,617,253,-28,-8420,-1852,-93,1099,-180
22:57:13.833,231,560,626,254,486,757,349,331,686,462,225,549,617,253,-28,-8420,-1852,-93,1099,-180
22:57:13.849,230,561,620,254,482,756,348,327,670,459,223,552,623,253,-268,-5736,-492,-321,1990,-380
22:57:13.866,230,561,620,254,482,756,348,327,670,459,223,552,623,253,-268,-5736,-492,-321,1990,-380
22:57:13.890,230,561,620,254,482,756,348,327,670,459,223,552,623,253,-268,-5736,-492,-321,1990,-380
22:57:13.907,230,561,620,254,482,756,348,327,670,459,223,552,623,253,-268,-5736,-492,-321,1990,-380
22:57:13.923,230,561,620,254,482,756,348,327,670,459,223,552,623,253,-268,-5736,-492,-321,1990,-380
22:57:13.940,230,561,620,254,482,756,348,327,670,459,223,552,623,253,-268,-5736,-492,-321,1990,-380
22:57:13.973,231,549,655,252,478,762,353,323,655,455,222,545,630,252,248,-8164,1788,-883,4557,-1101
22:57:13.990,231,549,655,252,478,762,353,323,655,455,222,545,630,252,248,-8164,1788,-883,4557,-1101
22:57:14.006,230,547,655,251,480,763,357,323,655,455,221,543,632,252,-72,-9048,1688,-740,4430,-1175
22:57:14.022,230,546,651,252,481,764,359,321,652,455,221,546,631,252,-408,-10304,1592,-599,4499,-1116
22:57:14.047,229,543,643,254,486,775,362,323,654,455,222,557,634,252,712,-10168,1936,-412,4113,-903
22:57:14.064,229,543,643,254,486,775,362,323,654,455,222,557,634,252,712,-10168,1936,-412,4113,-903
22:57:14.081,229,543,643,254,486,775,362,323,654,455,222,557,634,252,712,-10168,1936,-412,4113,-903
22:57:14.097,229,543,643,254,486,775,362,323,654,455,222,557,634,252,712,-10168,1936,-412,4113,-903
22:57:14.130,229,543,643,254,486,775,362,323,654,455,222,557,634,252,712,-10168,1936,-412,4113,-903
22:57:14.147,226,543,650,253,494,781,364,322,654,455,221,557,639,252,104,-9560,2552,-401,4216,-819
22:57:14.173,225,548,659,263,581,807,389,315,658,451,221,550,634,252,-2392,-7896,1688,139,2595,-659
22:57:14.189,225,548,659,263,581,807,389,315,658,451,221,550,634,252,-2392,-7896,1688,139,2595,-659
22:57:14.205,225,548,659,263,581,807,389,315,658,451,221,550,634,252,-2392,-7896,1688,139,2595,-659
22:57:14.222,225,548,659,263,581,807,389,315,658,451,221,550,634,252,-2392,-7896,1688,139,2595,-659
22:57:14.239,230,545,652,273,631,787,422,315,648,446,223,543,627,251,-828,-9776,1012,-825,656,-1048
22:57:14.272,229,539,645,289,637,775,441,316,641,444,228,544,636,252,-296,-11948,1160,1631,3197,-332
22:57:14.282,230,534,639,300,635,774,439,318,640,443,228,552,640,251,-204,-11868,-376,2757,4144,371
22:57:14.298,226,529,628,300,609,768,410,316,632,442,229,570,647,251,-2120,-10528,-1556,1722,110,1130
22:57:14.331,226,529,628,300,609,768,410,316,632,442,229,570,647,251,-2120,-10528,-1556,1722,110,1130
22:57:14.348,226,529,628,300,609,768,410,316,632,442,229,570,647,251,-2120,-10528,-1556,1722,110,1130
22:57:14.364,227,525,622,297,605,775,404,313,636,440,226,569,648,251,-4152,-8912,1784,311,-4508,1241
22:57:14.381,227,522,625,290,606,819,400,309,631,439,226,552,636,250,-2468,-8376,724,-1431,-6090,1060
22:57:14.397,227,522,625,290,606,819,400,309,631,439,226,552,636,250,-2468,-8376,724,-1431,-6090,1060
22:57:14.422,228,526,638,287,602,843,398,307,626,439,223,539,629,248,-448,-8860,1196,1345,-4532,1246
22:57:14.439,228,526,638,287,602,843,398,307,626,439,223,539,629,248,-448,-8860,1196,1345,-4532,1246
22:57:14.473,226,525,652,282,587,844,399,305,631,441,222,535,624,247,-1764,-6904,560,1973,-4028,1433
22:57:14.489,226,525,658,282,580,842,400,304,636,443,223,534,621,248,-1520,-6440,428,1528,-4836,1596
22:57:14.505,225,526,673,281,565,842,394,306,639,447,223,534,621,248,-1112,-6208,988,892,-5947,2231
22:57:14.522,225,526,673,281,565,842,394,306,639,447,223,534,621,248,-1112,-6208,988,892,-5947,2231
22:57:14.546,225,526,673,281,565,842,394,306,639,447,223,534,621,248,-1112,-6208,988,892,-5947,2231
22:57:14.563,224,532,683,279,547,836,391,309,646,451,223,543,614,248,-724,-6136,2404,-296,-6335,1591
22:57:14.579,224,534,685,281,545,836,391,310,644,451,223,542,613,247,236,-6468,2452,-695,-5682,1454
22:57:14.613,224,534,685,281,545,836,391,310,644,451,223,542,613,247,236,-6468,2452,-695,-5682,1454
22:57:14.629,224,541,690,278,536,829,388,309,637,453,223,541,612,247,544,-6756,868,-869,-5722,1501
22:57:14.646,226,543,686,279,535,829,386,307,635,452,223,541,608,246,300,-6904,96,-1533,-6049,1588
22:57:14.663,226,543,686,279,535,829,386,307,635,452,223,541,608,246,300,-6904,96,-1533,-6049,1588
22:57:14.691,226,548,681,277,533,823,382,306,628,453,222,541,607,247,160,-7876,492,-481,-5450,1477
22:57:14.708,226,548,681,277,533,823,382,306,628,453,222,541,607,247,160,-7876,492,-481,-5450,1477
22:57:14.724,226,548,681,277,533,823,382,306,628,453,222,541,607,247,160,-7876,492,-481,-5450,1477
22:57:14.741,226,548,681,277,533,823,382,306,628,453,222,541,607,247,160,-7876,492,-481,-5450,1477
22:57:14.767,225,546,654,276,527,818,378,303,619,447,223,536,603,247,1964,-7728,408,-203,-3887,1081
22:57:14.783,225,546,654,276,527,818,378,303,619,447,223,536,603,247,1964,-7728,408,-203,-3887,1081
22:57:14.799,224,538,649,274,525,820,379,304,615,447,222,536,602,248,2444,-8988,1008,-174,-2608,544
22:57:14.832,224,535,647,274,524,821,376,303,623,448,221,535,600,248,2780,-9856,744,-120,-2251,339
22:57:14.849,225,534,644,275,523,820,378,304,628,449,221,534,602,248,2808,-10872,44,-15,-1695,68
22:57:14.865,225,534,644,275,523,820,378,304,628,449,221,534,602,248,2808,-10872,44,-15,-1695,68
22:57:14.891,223,527,654,272,519,811,374,306,619,452,221,548,608,247,2288,-10984,-232,293,845,-637
22:57:14.907,223,527,654,272,519,811,374,306,619,452,221,548,608,247,2288,-10984,-232,293,845,-637
22:57:14.924,223,524,661,271,514,804,372,307,614,449,222,554,614,246,2308,-9848,360,484,2099,-1061
22:57:14.940,223,522,660,271,513,800,370,307,618,451,221,555,617,246,2776,-8992,868,558,3037,-1290
22:57:14.973,223,522,660,271,513,800,370,307,618,451,221,555,617,246,2776,-8992,868,558,3037,-1290
22:57:14.990,223,522,642,268,506,794,364,307,631,456,221,551,622,245,1072,-6552,2124,842,4852,-1681
22:57:15.006,223,522,642,268,506,794,364,307,631,456,221,551,622,245,1072,-6552,2124,842,4852,-1681
22:57:15.033,220,522,641,271,510,792,363,307,636,456,220,542,624,246,328,-4776,2052,886,5702,-2172
22:57:15.050,221,521,642,269,515,790,366,308,637,455,219,540,623,246,76,-4696,2524,793,6033,-2238
22:57:15.067,221,521,642,269,515,790,366,308,637,455,219,540,623,246,76,-4696,2524,793,6033,-2238
22:57:15.083,220,519,642,266,523,791,366,308,636,454,219,539,622,246,-756,-4964,1936,772,6059,-2412
22:57:15.099,219,521,647,265,547,795,374,310,630,448,218,539,623,246,-1912,-5500,1400,705,5475,-2515
22:57:15.124,220,522,645,267,555,795,379,311,628,448,217,543,624,245,-2160,-5764,1036,398,5299,-2509
22:57:15.141,220,522,645,267,555,795,379,311,628,448,217,543,624,245,-2160,-5764,1036,398,5299,-2509
22:57:15.158,220,522,645,267,555,795,379,311,628,448,217,543,624,245,-2160,-5764,1036,398,5299,-2509
22:57:15.191,219,523,644,267,615,791,396,309,624,446,220,556,635,246,-3372,-8324,612,-1035,1322,-2144
22:57:15.208,219,523,644,267,615,791,396,309,624,446,220,556,635,246,-3372,-8324,612,-1035,1322,-2144
22:57:15.224,219,523,644,267,615,791,396,309,624,446,220,556,635,246,-3372,-8324,612,-1035,1322,-2144
22:57:15.240,223,531,632,278,616,779,413,309,623,443,222,555,643,246,-1172,-11192,1312,-33,1694,-2484
22:57:15.266,245,532,626,320,644,757,442,319,621,442,227,540,639,247,2204,-11496,-3468,2591,6110,-78
22:57:15.283,245,532,626,320,644,757,442,319,621,442,227,540,639,247,2204,-11496,-3468,2591,6110,-78
22:57:15.299,233,525,610,310,608,750,408,316,615,440,225,550,638,246,-1648,-11240,-184,1570,900,-156
22:57:15.332,233,533,609,310,607,753,404,311,627,439,223,559,642,247,-5908,-7488,1228,-326,-3572,368
22:57:15.349,233,533,609,310,607,753,404,311,627,439,223,559,642,247,-5908,-7488,1228,-326,-3572,368
22:57:15.366,233,519,614,312,610,808,400,305,617,434,220,534,626,246,-1024,-10352,-2380,-2684,-5698,522
22:57:15.393,233,519,614,312,610,808,400,305,617,434,220,534,626,246,-1024,-10352,-2380,-2684,-5698,522
22:57:15.409,231,513,631,308,611,822,398,304,613,432,219,527,619,245,308,-8960,2328,1012,-2495,648
22:57:15.426,233,512,638,301,610,827,397,303,615,431,219,523,618,246,-1456,-8028,836,1893,-1446,470
22:57:15.442,233,512,638,301,610,827,397,303,615,431,219,523,618,246,-1456,-8028,836,1893,-1446,470
22:57:15.460,233,510,646,296,602,828,395,301,610,427,218,519,615,245,-1784,-6668,100,423,-3446,701
22:57:15.485,231,509,651,293,591,830,392,300,611,426,218,517,615,244,-1580,-7216,296,-99,-4437,950
22:57:15.502,230,513,656,295,577,830,391,300,610,426,218,520,613,244,-1168,-7560,1040,-438,-5021,991
22:57:15.518,230,513,656,295,577,830,391,300,610,426,218,520,613,244,-1168,-7560,1040,-438,-5021,991
22:57:15.551,228,515,656,294,564,829,390,299,611,427,218,518,611,244,136,-7696,1924,240,-4285,845
22:57:15.568,228,514,656,291,559,831,387,298,610,426,219,519,610,243,48,-7588,1760,252,-3726,788
22:57:15.584,228,514,656,291,559,831,387,298,610,426,219,519,610,243,48,-7588,1760,252,-3726,788
22:57:15.601,228,513,652,294,554,828,387,298,611,427,218,519,610,243,332,-7600,1072,107,-3726,630
22:57:15.627,228,513,652,294,554,828,387,298,611,427,218,519,610,243,332,-7600,1072,107,-3726,630
22:57:15.643,228,513,652,294,554,828,387,298,611,427,218,519,610,243,332,-7600,1072,107,-3726,630
22:57:15.660,228,518,652,290,541,831,381,298,619,431,217,520,607,243,368,-8920,1244,-91,-3704,346
22:57:15.677,228,518,652,290,541,831,381,298,619,431,217,520,607,243,368,-8920,1244,-91,-3704,346
22:57:15.710,228,518,652,290,541,831,381,298,619,431,217,520,607,243,368,-8920,1244,-91,-3704,346
22:57:15.719,229,518,650,290,539,829,381,298,620,432,217,520,606,243,284,-8804,912,184,-3789,361
22:57:15.752,227,520,637,287,534,823,380,297,623,436,216,521,603,243,292,-7748,524,39,-2825,372
22:57:15.769,224,519,632,284,530,823,376,298,622,435,216,518,605,242,-188,-7776,432,-80,-2827,341
22:57:15.785,224,519,632,284,530,823,376,298,622,435,216,518,605,242,-188,-7776,432,-80,-2827,341
22:57:15.802,224,518,627,282,528,822,376,297,620,434,216,514,607,242,-948,-8480,-1020,-249,-3547,266
22:57:15.818,224,520,624,282,528,822,377,297,618,433,218,514,605,242,-1488,-8368,-848,-102,-3790,189
22:57:15.843,224,520,624,282,528,822,377,297,618,433,218,514,605,242,-1488,-8368,-848,-102,-3790,189
22:57:15.860,226,519,617,283,528,823,375,297,612,431,217,508,605,242,-1744,-8324,-1004,-159,-3612,-99
22:57:15.893,226,519,617,283,528,823,375,297,612,431,217,508,605,242,-1744,-8324,-1004,-159,-3612,-99
22:57:15.910,226,519,617,283,528,823,375,297,612,431,217,508,605,242,-1744,-8324,-1004,-159,-3612,-99
22:57:15.926,226,519,617,283,528,823,375,297,612,431,217,508,605,242,-1744,-8324,-1004,-159,-3612,-99
22:57:15.943,224,519,614,283,521,825,372,295,613,430,217,507,604,242,-1596,-8856,-548,-125,-3669,-220
22:57:15.959,226,522,612,283,524,823,373,297,622,433,215,504,604,241,-1632,-8824,-576,-218,-4014,-51
22:57:15.985,226,524,616,282,525,820,371,300,627,435,214,508,602,241,-1504,-8484,-320,-157,-3669,-62
22:57:16.002,226,524,616,282,525,820,371,300,627,435,214,508,602,241,-1504,-8484,-320,-157,-3669,-62
22:57:16.018,227,526,626,284,520,817,373,301,629,435,215,512,600,242,-1192,-8196,-660,-7,-3500,-10
22:57:16.051,226,527,634,285,519,810,372,302,626,435,214,512,598,241,-904,-7400,-328,-8,-3077,139
22:57:16.068,226,527,634,285,519,810,372,302,626,435,214,512,598,241,-904,-7400,-328,-8,-3077,139
22:57:16.085,224,529,628,285,519,803,369,303,623,434,214,515,595,241,-300,-6528,-128,157,-3228,109
22:57:16.109,225,529,624,287,516,801,370,304,620,434,214,515,593,241,-364,-6468,68,234,-2944,-19
22:57:16.126,226,531,619,285,514,798,369,303,618,433,214,516,592,241,-228,-6296,392,306,-2774,11
22:57:16.143,223,528,618,284,513,798,367,304,617,433,214,512,592,240,488,-6600,416,325,-2091,-57
22:57:16.159,223,528,618,284,513,798,367,304,617,433,214,512,592,240,488,-6600,416,325,-2091,-57
22:57:16.192,223,518,631,282,509,797,367,298,629,429,214,509,592,241,204,-9292,-756,427,-1148,-10
22:57:16.209,223,518,631,282,509,797,367,298,629,429,214,509,592,241,204,-9292,-756,427,-1148,-10
22:57:16.226,224,516,633,284,510,794,368,298,630,427,213,510,590,242,-92,-9880,-632,415,-833,-82
22:57:16.252,224,516,633,284,510,794,368,298,630,427,213,510,590,242,-92,-9880,-632,415,-833,-82
22:57:16.269,223,510,631,281,507,796,365,298,618,426,213,516,588,241,-344,-9868,-928,677,15,-506
22:57:16.285,223,510,631,281,507,796,365,298,618,426,213,516,588,241,-344,-9868,-928,677,15,-506
22:57:16.302,223,510,631,281,507,796,365,298,618,426,213,516,588,241,-344,-9868,-928,677,15,-506
22:57:16.318,224,511,632,281,508,799,361,298,613,427,214,523,588,242,-504,-9748,-772,789,691,-449
22:57:16.343,223,506,621,281,506,792,358,299,611,426,215,534,598,243,208,-8236,-864,672,1529,-428
22:57:16.360,223,506,621,281,506,792,358,299,611,426,215,534,598,243,208,-8236,-864,672,1529,-428
22:57:16.377,223,506,615,279,505,788,353,299,613,427,214,534,599,243,-60,-7548,-1276,583,1464,-195
22:57:16.410,223,503,611,281,503,787,352,298,619,427,216,540,606,245,-1368,-5420,-564,588,1349,29
22:57:16.427,223,503,611,281,503,787,352,298,619,427,216,540,606,245,-1368,-5420,-564,588,1349,29
22:57:16.443,223,503,611,281,503,787,352,298,619,427,216,540,606,245,-1368,-5420,-564,588,1349,29
22:57:16.459,223,503,611,281,503,787,352,298,619,427,216,540,606,245,-1368,-5420,-564,588,1349,29
22:57:16.485,224,510,599,279,506,785,359,296,611,424,216,551,594,244,-1800,-7472,-1692,28,859,675
22:57:16.502,223,512,599,279,505,782,358,296,609,424,216,543,590,244,-1908,-7432,-1576,19,698,764
22:57:16.518,221,516,605,276,507,781,361,296,609,423,215,537,588,242,-2300,-7196,-1708,-43,64,924
22:57:16.551,224,522,626,279,509,780,361,296,611,422,215,527,587,242,-2048,-7100,-2224,-402,-498,836
22:57:16.568,224,522,626,279,509,780,361,296,611,422,215,527,587,242,-2048,-7100,-2224,-402,-498,836
22:57:16.585,225,526,632,279,509,781,360,297,613,424,214,523,587,242,-1960,-7688,-2248,-324,-712,889
22:57:16.611,224,528,638,280,507,783,359,297,614,426,214,521,587,242,-1548,-8096,-2476,-345,-838,946
22:57:16.627,224,531,649,279,511,786,360,298,618,430,214,518,587,242,-1076,-8548,-2512,-430,-1867,913
22:57:16.644,225,532,653,279,510,786,361,299,621,431,214,519,586,243,-936,-8816,-2552,-351,-2164,905
22:57:16.660,225,535,657,279,512,785,360,301,623,431,214,519,586,242,-80,-9232,-2368,-487,-2542,734
22:57:16.693,225,535,657,279,512,785,360,301,623,431,214,519,586,242,-80,-9232,-2368,-487,-2542,734
22:57:16.710,222,538,660,278,509,777,361,307,627,431,214,519,585,243,-12,-9628,-2396,-246,-2255,670
22:57:16.719,223,537,663,278,508,774,360,309,630,432,214,517,584,243,-168,-9444,-2320,-231,-2298,493
22:57:16.752,225,541,667,279,508,774,363,314,633,430,214,522,583,242,-28,-8528,-1692,68,-1367,180
22:57:16.769,223,543,669,279,508,778,365,316,631,427,215,525,579,242,1104,-7904,-1400,75,-320,-49
22:57:16.786,223,547,668,279,508,779,364,317,630,426,215,526,578,242,1160,-7536,-1244,95,82,-98
22:57:16.802,223,547,668,279,508,779,364,317,630,426,215,526,578,242,1160,-7536,-1244,95,82,-98
22:57:16.818,224,547,672,281,511,779,365,316,624,424,216,526,576,241,1288,-7136,-76,356,1365,-265
22:57:16.845,223,547,674,279,511,780,365,315,621,423,217,522,576,240,1256,-7236,308,605,2069,-411
22:57:16.861,223,537,672,280,512,782,365,309,619,422,217,522,577,240,1804,-9720,2272,258,3921,-502
22:57:16.877,223,537,672,280,512,782,365,309,619,422,217,522,577,240,1804,-9720,2272,258,3921,-502
22:57:16.911,223,537,672,280,512,782,365,309,619,422,217,522,577,240,1804,-9720,2272,258,3921,-502
22:57:16.927,222,529,646,274,509,777,362,306,611,420,215,529,584,240,972,-8552,3012,70,4818,-569
22:57:16.944,224,528,644,271,504,776,356,303,605,421,215,510,590,240,708,-9056,3812,-415,5793,-1050
22:57:16.970,223,531,648,268,506,780,356,304,605,421,213,506,589,239,24,-8408,3232,-349,6903,-1430
22:57:16.987,223,531,648,268,506,780,356,304,605,421,213,506,589,239,24,-8408,3232,-349,6903,-1430
22:57:17.003,223,531,648,268,506,780,356,304,605,421,213,506,589,239,24,-8408,3232,-349,6903,-1430
22:57:17.020,223,531,648,268,506,780,356,304,605,421,213,506,589,239,24,-8408,3232,-349,6903,-1430
22:57:17.053,223,531,648,268,506,780,356,304,605,421,213,506,589,239,24,-8408,3232,-349,6903,-1430
22:57:17.070,222,532,652,269,513,784,361,305,607,421,214,508,594,239,-44,-8012,2780,-40,6483,-1453
22:57:17.080,221,530,653,277,546,792,368,303,612,419,214,516,602,239,-1616,-7068,2348,149,6378,-1241
22:57:17.097,222,528,652,281,608,792,384,303,615,421,214,517,610,239,-5776,-5192,828,-274,3727,325
22:57:17.130,225,534,633,295,622,763,411,301,624,423,215,516,619,240,684,-9804,3396,438,2561,-2131
22:57:17.147,225,534,633,295,622,763,411,301,624,423,215,516,619,240,684,-9804,3396,438,2561,-2131
22:57:17.163,243,537,631,348,654,754,433,304,612,424,223,512,626,241,900,-11172,-1028,2663,7313,-1900
22:57:17.190,248,542,624,352,651,755,439,306,610,424,226,508,629,241,5448,-10604,-3668,3073,8181,1079
22:57:17.207,248,542,624,352,651,755,439,306,610,424,226,508,629,241,5448,-10604,-3668,3073,8181,1079
22:57:17.224,248,542,624,352,651,755,439,306,610,424,226,508,629,241,5448,-10604,-3668,3073,8181,1079
22:57:17.240,237,547,607,331,611,748,405,305,629,422,222,529,633,242,-7552,-11748,3092,-4231,-5556,-1149
22:57:17.257,228,539,602,327,611,748,393,298,626,423,225,510,629,241,-552,-1680,4936,-4742,-6849,668
22:57:17.283,231,531,604,326,610,774,389,297,622,420,223,508,621,241,-1968,-7424,3012,228,-4694,2111
22:57:17.300,231,531,604,326,610,774,389,297,622,420,223,508,621,241,-1968,-7424,3012,228,-4694,2111
22:57:17.317,231,531,604,326,610,774,389,297,622,420,223,508,621,241,-1968,-7424,3012,228,-4694,2111
22:57:17.350,230,518,604,325,612,809,392,291,610,415,220,506,607,241,3504,-11312,-1612,-2126,-3301,-170
22:57:17.366,230,516,608,327,611,829,392,289,604,414,218,500,604,240,-1336,-7940,2912,1862,-2974,468
22:57:17.390,232,515,612,322,612,833,389,289,601,413,219,496,602,240,-2880,-7028,2280,1603,-3279,586
22:57:17.408,231,512,615,315,605,834,390,288,610,414,219,491,602,239,-2900,-7096,2492,1455,-3531,890
22:57:17.424,232,512,624,313,590,835,390,287,617,417,218,500,599,240,-1296,-7440,2232,-16,-4103,802
22:57:17.441,232,514,630,311,582,833,391,287,622,419,217,500,599,239,-296,-7760,3028,-193,-4714,919
22:57:17.457,232,514,630,311,582,833,391,287,622,419,217,500,599,239,-296,-7760,3028,-193,-4714,919
22:57:17.490,229,511,651,307,558,831,387,289,622,422,217,502,595,239,-756,-7820,2736,302,-4146,1515
22:57:17.507,229,511,651,307,558,831,387,289,622,422,217,502,595,239,-756,-7820,2736,302,-4146,1515
22:57:17.517,229,511,651,307,558,831,387,289,622,422,217,502,595,239,-756,-7820,2736,302,-4146,1515
22:57:17.551,227,525,670,303,538,828,382,290,618,424,217,496,593,240,-1532,-7608,1876,-4,-5873,1092
22:57:17.567,227,525,670,303,538,828,382,290,618,424,217,496,593,240,-1532,-7608,1876,-4,-5873,1092
22:57:17.584,225,528,680,300,534,825,377,291,619,422,216,500,592,240,356,-8232,4276,429,-6571,1113
22:57:17.600,225,528,680,300,534,825,377,291,619,422,216,500,592,240,356,-8232,4276,429,-6571,1113
22:57:17.627,227,537,683,300,531,819,376,293,623,419,217,499,590,241,1344,-8416,2496,60,-6876,927
22:57:17.644,227,537,683,300,531,819,376,293,623,419,217,499,590,241,1344,-8416,2496,60,-6876,927
22:57:17.661,228,540,679,299,530,816,373,295,625,417,217,496,589,241,1528,-7736,3584,601,-5726,791
22:57:17.677,227,543,679,297,528,815,368,295,625,418,216,496,589,241,1096,-7728,3264,608,-5522,730
22:57:17.710,226,545,675,297,526,812,369,296,625,419,215,495,589,241,1264,-8636,2552,689,-4799,757
22:57:17.718,226,545,675,297,526,812,369,296,625,419,215,495,589,241,1264,-8636,2552,689,-4799,757
22:57:17.752,227,543,655,295,522,804,367,295,630,420,214,493,588,241,1444,-9000,1244,582,-3645,676
22:57:17.768,227,543,655,295,522,804,367,295,630,420,214,493,588,241,1444,-9000,1244,582,-3645,676
22:57:17.785,224,535,648,291,519,800,370,296,631,418,213,495,586,241,1048,-9580,220,256,-3126,612
22:57:17.801,224,535,648,291,519,800,370,296,631,418,213,495,586,241,1048,-9580,220,256,-3126,612
22:57:17.818,224,535,646,291,517,801,369,297,629,416,213,495,585,240,1132,-9532,-1152,287,-2880,589
22:57:17.843,224,535,646,291,517,801,369,297,629,416,213,495,585,240,1132,-9532,-1152,287,-2880,589
22:57:17.859,224,528,638,291,514,792,364,297,624,413,213,501,579,240,772,-8820,-948,454,-2468,162
22:57:17.893,222,527,636,289,513,793,364,295,622,412,212,507,579,239,488,-9176,-1568,409,-2203,-123
22:57:17.909,222,527,636,289,513,793,364,295,622,412,212,507,579,239,488,-9176,-1568,409,-2203,-123
22:57:17.927,224,523,634,290,511,789,362,294,612,411,213,510,577,239,-436,-9412,-2244,514,-2552,-401
22:57:17.942,224,523,633,288,508,789,361,293,608,410,214,510,577,239,-72,-9192,-1912,642,-2065,-498
22:57:17.959,224,523,633,288,508,789,361,293,608,410,214,510,577,239,-72,-9192,-1912,642,-2065,-498
22:57:17.988,223,520,634,288,506,787,358,292,603,409,214,519,576,239,136,-8636,-1900,566,-2192,-412
22:57:18.005,223,520,634,288,506,787,358,292,603,409,214,519,576,239,136,-8636,-1900,566,-2192,-412
22:57:18.021,222,518,633,286,505,785,356,290,601,410,214,522,578,239,184,-8104,-2032,250,-2271,-299
22:57:18.038,222,518,633,286,505,785,356,290,601,410,214,522,578,239,184,-8104,-2032,250,-2271,-299
22:57:18.067,221,515,632,285,503,783,355,290,597,408,213,511,578,239,480,-7076,-1236,115,-1703,-107
22:57:18.083,221,515,632,285,503,783,355,290,597,408,213,511,578,239,480,-7076,-1236,115,-1703,-107
22:57:18.100,221,515,632,285,503,783,355,290,597,408,213,511,578,239,480,-7076,-1236,115,-1703,-107
22:57:18.124,222,512,628,283,501,782,354,288,592,406,213,501,577,239,152,-6660,-648,-66,-1461,185
22:57:18.140,222,512,624,284,500,783,355,288,590,402,211,495,577,239,-128,-6380,-736,-330,-1463,419
22:57:18.173,222,512,622,284,499,782,353,288,589,402,211,494,575,238,-76,-6224,-768,-381,-1046,476
22:57:18.190,221,511,620,283,496,777,354,287,588,400,212,491,572,238,-356,-6484,-112,-349,-1143,523
22:57:18.206,221,511,620,283,496,777,354,287,588,400,212,491,572,238,-356,-6484,-112,-349,-1143,523
22:57:18.223,223,512,615,284,497,776,354,286,588,398,212,490,568,239,-52,-7192,-8,-424,-775,441
22:57:18.240,223,512,615,284,497,776,354,286,588,398,212,490,568,239,-52,-7192,-8,-424,-775,441
22:57:18.272,222,510,613,284,497,774,352,287,589,397,211,490,567,238,-120,-7764,-512,-433,-1273,423
22:57:18.281,222,510,613,284,497,774,352,287,589,397,211,490,567,238,-120,-7764,-512,-433,-1273,423
22:57:18.298,223,509,610,285,494,784,348,289,589,396,213,485,565,238,-452,-8600,160,-30,-1386,382
22:57:18.331,220,508,612,282,491,798,349,289,596,397,212,483,567,237,-356,-9772,164,-10,-1572,272
22:57:18.348,220,508,612,282,491,798,349,289,596,397,212,483,567,237,-356,-9772,164,-10,-1572,272
22:57:18.364,222,509,610,283,493,802,350,290,600,397,212,483,566,237,-280,-10768,-508,15,-1922,320
22:57:18.381,223,509,611,285,494,805,349,291,603,397,212,482,566,238,-760,-11360,-292,7,-2249,225
22:57:18.397,223,509,611,285,494,805,349,291,603,397,212,482,566,238,-760,-11360,-292,7,-2249,225
22:57:18.423,223,504,605,283,492,805,348,292,597,397,211,479,563,237,-8,-10080,220,390,-2350,58
22:57:18.440,223,504,605,283,492,805,348,292,597,397,211,479,563,237,-8,-10080,220,390,-2350,58
22:57:18.473,221,502,599,281,489,807,347,291,589,397,211,476,563,237,-188,-9668,192,386,-2804,-54
22:57:18.489,219,500,597,280,488,804,345,291,586,396,212,482,567,237,416,-8744,384,510,-2382,-322
22:57:18.506,219,500,597,280,488,804,345,291,586,396,212,482,567,237,416,-8744,384,510,-2382,-322
22:57:18.523,220,501,597,280,491,802,347,291,584,396,211,483,572,238,400,-7748,748,663,-1807,-448
22:57:18.550,220,501,597,280,491,802,347,291,584,396,211,483,572,238,400,-7748,748,663,-1807,-448
22:57:18.566,221,500,601,279,487,797,348,291,586,396,211,485,577,237,-176,-6360,636,728,-1488,-728
22:57:18.583,221,500,601,279,487,797,348,291,586,396,211,485,577,237,-176,-6360,636,728,-1488,-728
22:57:18.599,221,500,601,279,487,797,348,291,586,396,211,485,577,237,-176,-6360,636,728,-1488,-728
22:57:18.624,221,499,612,280,490,796,350,291,586,397,212,491,580,237,-68,-5904,620,703,-467,-744
22:57:18.640,221,499,612,280,490,796,350,291,586,397,212,491,580,237,-68,-5904,620,703,-467,-744
22:57:18.674,220,498,617,279,489,796,349,292,584,397,211,488,582,238,-408,-5992,984,746,358,-935
22:57:18.690,220,499,620,279,491,798,350,293,582,398,211,486,583,238,-348,-6272,652,810,1004,-875
22:57:18.707,219,502,621,279,493,806,349,294,578,399,211,484,582,239,-84,-7532,192,614,1437,-1019
22:57:18.723,219,502,621,279,493,806,349,294,578,399,211,484,582,239,-84,-7532,192,614,1437,-1019
22:57:18.739,219,502,621,279,493,806,349,294,578,399,211,484,582,239,-84,-7532,192,614,1437,-1019
22:57:18.773,220,505,629,279,495,810,347,298,577,406,211,495,585,240,116,-9936,-980,501,1811,-926
22:57:18.781,220,505,629,279,495,810,347,298,577,406,211,495,585,240,116,-9936,-980,501,1811,-926
22:57:18.798,221,505,629,279,497,811,348,298,577,406,211,500,587,241,20,-10372,-1056,484,1866,-816
22:57:18.831,221,505,630,278,500,800,352,300,586,406,212,523,593,243,-948,-10972,-1152,480,1513,-221
22:57:18.847,221,505,630,278,500,800,352,300,586,406,212,523,593,243,-948,-10972,-1152,480,1513,-221
22:57:18.864,221,506,629,278,502,799,351,300,589,405,213,527,593,242,-808,-11004,-1304,408,1231,27
22:57:18.881,220,504,626,276,502,796,350,300,592,403,212,526,591,242,-600,-10628,-2048,449,750,193
22:57:18.897,219,503,627,275,500,794,350,299,595,402,214,525,592,241,-492,-10156,-1620,479,32,271
22:57:18.922,219,499,622,277,502,792,351,297,600,401,215,514,584,242,-284,-8756,-1424,508,-506,487
22:57:18.938,219,499,622,277,502,792,351,297,600,401,215,514,584,242,-284,-8756,-1424,508,-506,487
22:57:18.972,220,497,619,277,498,788,350,295,606,400,216,505,578,241,-992,-7352,-1504,466,-928,336
22:57:18.988,220,497,619,277,498,788,350,295,606,400,216,505,578,241,-992,-7352,-1504,466,-928,336
22:57:19.005,221,497,614,278,497,783,353,292,612,399,217,496,575,239,-304,-6116,-1016,600,-1937,475
22:57:19.021,221,497,614,278,497,783,353,292,612,399,217,496,575,239,-304,-6116,-1016,600,-1937,475
22:57:19.038,221,497,614,278,497,783,353,292,612,399,217,496,575,239,-304,-6116,-1016,600,-1937,475
22:57:19.065,220,496,610,276,494,776,353,291,614,399,216,494,572,239,-196,-5304,-736,265,-2761,438
22:57:19.081,220,496,610,276,494,776,353,291,614,399,216,494,572,239,-196,-5304,-736,265,-2761,438
22:57:19.098,220,496,610,276,494,776,353,291,614,399,216,494,572,239,-196,-5304,-736,265,-2761,438
22:57:19.131,218,496,605,273,492,774,348,288,606,403,216,496,570,237,-104,-6024,-352,128,-3189,285
22:57:19.147,220,497,606,274,491,773,346,289,604,405,215,497,572,238,-248,-6624,-364,-108,-3546,352
22:57:19.173,219,495,611,274,487,774,343,288,605,412,215,499,575,237,116,-7796,-816,-273,-3711,358
22:57:19.189,220,498,615,273,487,775,340,287,605,419,213,505,575,238,888,-9288,-1180,-128,-3897,456
22:57:19.206,220,498,615,273,487,775,340,287,605,419,213,505,575,238,888,-9288,-1180,-128,-3897,456
22:57:19.223,220,498,616,274,484,774,337,288,604,421,213,506,575,239,980,-9604,-628,-30,-3953,536
22:57:19.240,217,498,620,271,483,773,338,288,605,422,213,507,576,239,984,-9840,-276,-50,-4016,508
22:57:19.272,220,499,630,272,481,774,337,288,607,426,213,508,579,238,1712,-10988,-872,-48,-3628,550
22:57:19.281,220,499,630,272,481,774,337,288,607,426,213,508,579,238,1712,-10988,-872,-48,-3628,550
22:57:19.297,220,499,634,274,480,772,336,289,608,424,210,505,577,238,2148,-11240,-828,51,-3451,619
22:57:19.331,219,503,634,273,481,764,335,288,606,421,212,498,572,239,1572,-10224,-1496,176,-3463,529
22:57:19.347,219,505,634,273,479,764,333,288,604,420,212,495,570,238,1044,-9568,-580,236,-3082,408
22:57:19.363,219,505,634,273,479,764,333,288,604,420,212,495,570,238,1044,-9568,-580,236,-3082,408
22:57:19.380,220,507,635,274,481,763,335,288,602,419,212,495,569,239,1136,-8712,-44,224,-2919,216
22:57:19.413,219,508,632,273,479,762,331,288,596,417,212,494,571,238,1692,-7576,-244,233,-2726,-37
22:57:19.423,219,508,632,273,479,762,331,288,596,417,212,494,571,238,1692,-7576,-244,233,-2726,-37
22:57:19.440,219,508,632,273,479,762,331,288,596,417,212,494,571,238,1692,-7576,-244,233,-2726,-37
22:57:19.473,219,507,611,273,476,763,326,287,588,413,212,492,573,236,1688,-6412,-184,51,-2113,-398
22:57:19.489,218,500,603,272,476,766,326,287,584,411,210,490,570,237,1920,-6592,508,66,-1662,-521
22:57:19.506,218,500,603,272,476,766,326,287,584,411,210,490,570,237,1920,-6592,508,66,-1662,-521
22:57:19.523,218,500,603,272,476,766,326,287,584,411,210,490,570,237,1920,-6592,508,66,-1662,-521
22:57:19.548,217,494,599,270,472,759,322,287,600,407,211,488,570,236,1700,-7660,144,-51,-1431,-389
22:57:19.564,219,494,598,272,473,759,323,286,603,406,211,488,569,236,2036,-7736,200,-67,-1072,-429
22:57:19.581,219,494,598,272,473,759,323,286,603,406,211,488,569,236,2036,-7736,200,-67,-1072,-429
22:57:19.598,219,494,598,272,473,759,323,286,603,406,211,488,569,236,2036,-7736,200,-67,-1072,-429
22:57:19.631,218,489,592,269,468,758,323,287,612,405,210,486,567,236,1900,-8852,236,-129,-723,-181
22:57:19.648,218,489,592,269,468,758,323,287,612,405,210,486,567,236,1900,-8852,236,-129,-723,-181
22:57:19.689,219,490,588,271,470,757,323,286,613,405,210,487,566,236,1596,-8852,-168,-210,-717,-149
22:57:19.689,219,490,588,271,470,757,323,286,613,405,210,487,566,236,1596,-8852,-168,-210,-717,-149
22:57:19.706,218,489,585,270,467,756,321,286,608,404,209,488,568,236,1576,-8600,216,-118,-65,-255
22:57:19.722,218,488,585,270,466,756,322,285,603,403,209,487,570,235,1776,-8340,60,-2,212,-249
22:57:19.739,218,488,585,270,466,756,322,285,603,403,209,487,570,235,1776,-8340,60,-2,212,-249
22:57:19.772,218,485,586,268,465,754,320,285,592,402,209,490,572,235,1512,-7780,48,146,285,-313
22:57:19.785,218,484,591,267,465,754,319,284,588,400,208,490,571,236,1064,-8016,456,223,580,-261
22:57:19.801,218,484,591,267,465,754,319,284,588,400,208,490,571,236,1064,-8016,456,223,580,-261
22:57:19.818,218,484,598,264,466,755,317,282,586,401,209,480,567,235,192,-8280,-232,-75,786,-106
22:57:19.843,218,484,598,264,466,755,317,282,586,401,209,480,567,235,192,-8280,-232,-75,786,-106
22:57:19.860,216,480,594,263,466,757,317,282,584,401,210,476,565,234,-36,-7832,400,325,1709,-82
22:57:19.877,216,480,594,263,466,757,317,282,584,401,210,476,565,234,-36,-7832,400,325,1709,-82
22:57:19.910,216,479,591,263,463,762,316,281,580,400,209,474,560,234,-644,-8348,-248,277,1832,18
22:57:19.926,218,480,600,263,462,765,314,281,579,399,208,476,557,234,-572,-9180,-380,284,2107,300
22:57:19.943,218,480,600,263,462,765,314,281,579,399,208,476,557,234,-572,-9180,-380,284,2107,300
22:57:19.960,217,478,606,264,463,765,315,279,580,399,209,480,555,235,-696,-9220,-140,506,2307,523
22:57:19.988,216,478,611,263,464,764,314,281,583,400,209,482,556,234,-404,-8840,40,530,2616,720
22:57:20.004,218,477,610,264,465,764,314,280,593,401,208,487,555,234,-548,-8560,240,326,3563,752
22:57:20.021,217,479,608,263,463,763,314,279,596,402,208,488,555,234,-852,-8708,-24,374,3819,778
22:57:20.037,218,480,608,264,464,765,314,279,599,401,208,488,554,234,-812,-8748,-40,516,3653,676
22:57:20.063,218,480,606,265,466,768,317,279,599,402,209,489,552,234,-1188,-8608,-192,549,3899,517
22:57:20.080,218,479,598,266,464,773,315,280,602,401,209,484,553,234,-1084,-8944,-404,526,4130,572
22:57:20.113,218,479,598,266,464,773,315,280,602,401,209,484,553,234,-1084,-8944,-404,526,4130,572
22:57:20.129,218,479,598,266,464,773,315,280,602,401,209,484,553,234,-1084,-8944,-404,526,4130,572
22:57:20.146,218,484,586,265,468,768,315,279,595,401,209,479,551,235,-1412,-7928,-536,427,4192,578
22:57:20.162,218,484,586,265,468,768,315,279,595,401,209,479,551,235,-1412,-7928,-536,427,4192,578
22:57:20.179,218,484,586,265,468,768,315,279,595,401,209,479,551,235,-1412,-7928,-536,427,4192,578
22:57:20.207,219,483,582,266,466,763,315,279,595,402,209,479,553,234,-1268,-7436,-812,241,4232,604
22:57:20.223,218,483,578,266,465,758,314,278,595,401,209,478,555,234,-1492,-7016,-872,41,3936,516
22:57:20.239,218,483,578,266,465,758,314,278,595,401,209,478,555,234,-1492,-7016,-872,41,3936,516
22:57:20.273,218,483,578,266,465,758,314,278,595,401,209,478,555,234,-1492,-7016,-872,41,3936,516
22:57:20.284,218,485,577,266,463,758,316,278,598,401,209,477,556,234,-1044,-6848,-796,-1,4060,614
22:57:20.300,219,491,594,266,462,759,320,280,613,399,209,470,556,234,-588,-6860,-644,-274,3692,583
22:57:20.317,219,491,594,266,462,759,320,280,613,399,209,470,556,234,-588,-6860,-644,-274,3692,583
22:57:20.350,217,492,600,264,462,758,320,283,619,399,207,472,554,234,-824,-6864,-556,-322,3824,566
22:57:20.358,217,496,616,266,464,762,327,288,628,397,207,471,552,234,-1328,-7764,-928,-291,3508,421
22:57:20.391,219,502,630,271,474,767,334,295,640,398,208,476,550,235,-2184,-8156,-1712,-341,2937,310
22:57:20.408,219,502,630,271,474,767,334,295,640,398,208,476,550,235,-2184,-8156,-1712,-341,2937,310
22:57:20.424,219,502,630,271,474,767,334,295,640,398,208,476,550,235,-2184,-8156,-1712,-341,2937,310
22:57:20.441,219,502,630,271,474,767,334,295,640,398,208,476,550,235,-2184,-8156,-1712,-341,2937,310
22:57:20.458,220,510,642,272,484,764,337,296,646,400,207,476,549,235,-2264,-9424,-2024,-266,2651,94
22:57:20.491,221,513,642,273,490,762,337,295,646,399,207,475,548,234,-2736,-9880,-2080,-327,2773,-14
22:57:20.502,218,512,643,270,495,763,337,292,646,399,209,474,549,235,-1796,-10548,-2168,-412,2523,-262
22:57:20.520,218,512,643,270,495,763,337,292,646,399,209,474,549,235,-1796,-10548,-2168,-412,2523,-262
22:57:20.552,222,509,624,270,486,775,331,287,635,405,210,477,565,237,-1528,-10436,-636,-425,2663,-821
22:57:20.569,221,515,619,270,482,782,330,289,627,404,212,475,571,237,-824,-10428,20,-226,2665,-1187
22:57:20.578,221,515,619,270,482,782,330,289,627,404,212,475,571,237,-824,-10428,20,-226,2665,-1187
22:57:20.611,221,523,624,272,536,797,338,286,619,404,209,476,582,239,-744,-7904,1496,-323,3459,-1054
22:57:20.627,221,523,624,272,536,797,338,286,619,404,209,476,582,239,-744,-7904,1496,-323,3459,-1054
22:57:20.644,221,525,634,276,563,798,344,287,620,405,209,479,583,240,-868,-7632,1200,-245,3338,-361
22:57:20.660,219,523,642,278,592,794,350,286,623,407,209,483,587,239,-2796,-6572,732,-426,2423,752
22:57:20.677,219,523,642,278,592,794,350,286,623,407,209,483,587,239,-2796,-6572,732,-426,2423,752
22:57:20.710,224,522,630,287,618,775,369,289,629,408,212,484,595,240,-180,-8140,2276,-2667,-346,-1099
22:57:20.720,229,541,621,339,629,761,411,294,630,414,220,484,600,240,-492,-9976,2868,-44,3822,-2531
22:57:20.737,229,541,621,339,629,761,411,294,630,414,220,484,600,240,-492,-9976,2868,-44,3822,-2531
22:57:20.770,242,534,612,391,663,754,443,308,618,424,232,490,613,240,6388,-9904,-2924,2430,6128,22
22:57:20.787,237,534,603,383,617,750,410,309,637,432,236,495,619,241,56,-7760,956,-6350,-3551,189
22:57:20.803,237,534,603,383,617,750,410,309,637,432,236,495,619,241,56,-7760,956,-6350,-3551,189
22:57:20.820,233,533,600,375,611,746,406,307,641,432,235,503,617,240,-5856,-10400,5496,-5260,-6659,-587
22:57:20.844,230,528,598,368,607,746,399,301,637,437,237,499,619,240,-2208,-7632,9264,-478,-4912,785
22:57:20.861,229,517,587,361,604,742,384,296,628,434,231,488,609,239,1308,-7156,3368,3767,-1264,2227
22:57:20.877,229,517,587,361,604,742,384,296,628,434,231,488,609,239,1308,-7156,3368,3767,-1264,2227
22:57:20.910,227,507,588,358,605,735,378,294,616,427,231,486,595,239,3708,-13572,2108,2029,-3616,532
22:57:20.927,227,507,588,358,605,735,378,294,616,427,231,486,595,239,3708,-13572,2108,2029,-3616,532
22:57:20.945,228,502,592,355,611,796,382,293,616,421,227,480,592,238,-144,-8084,-452,689,-3625,740
22:57:20.970,228,502,592,355,611,796,382,293,616,421,227,480,592,238,-144,-8084,-452,689,-3625,740
22:57:20.987,227,501,599,348,613,822,390,293,616,421,227,481,593,237,-64,-7440,2128,1195,-4096,951
22:57:21.004,230,503,604,348,619,831,390,293,615,421,226,481,591,237,-132,-7412,3204,937,-4443,895
22:57:21.020,231,505,612,344,620,835,388,293,614,421,226,482,587,238,-308,-7788,3152,14,-4993,568
22:57:21.053,231,505,612,344,620,835,388,293,614,421,226,482,587,238,-308,-7788,3152,14,-4993,568
22:57:21.069,232,506,618,342,616,837,389,294,613,421,227,481,587,238,-508,-7908,2928,-279,-4866,469
22:57:21.078,229,503,612,339,609,836,391,292,612,418,227,476,587,236,1368,-6716,1852,42,-4681,601
22:57:21.111,229,500,614,355,593,836,390,292,614,421,226,471,585,237,988,-7152,1940,582,-4505,761
22:57:21.128,228,499,621,351,587,833,386,293,613,423,227,471,586,237,-216,-7352,2204,1300,-4493,713
22:57:21.145,228,499,621,351,587,833,386,293,613,423,227,471,586,237,-216,-7352,2204,1300,-4493,713
22:57:21.161,226,507,630,338,569,832,383,291,617,425,224,473,584,237,560,-6740,3012,975,-4659,122
22:57:21.178,226,507,630,338,569,832,383,291,617,425,224,473,584,237,560,-6740,3012,975,-4659,122
22:57:21.202,226,507,630,338,569,832,383,291,617,425,224,473,584,237,560,-6740,3012,975,-4659,122
22:57:21.219,227,504,637,338,563,831,383,290,623,427,224,478,583,237,832,-7324,3040,829,-5089,154
22:57:21.252,224,512,653,329,547,821,379,291,627,424,222,488,586,239,672,-8360,3392,935,-5520,627
22:57:21.269,223,514,654,325,538,815,373,291,615,421,222,491,583,242,1080,-7816,2380,887,-5427,661
22:57:21.285,225,514,654,326,536,807,372,292,610,420,222,495,582,241,908,-7528,2036,776,-5445,598
22:57:21.301,225,514,654,326,536,807,372,292,610,420,222,495,582,241,908,-7528,2036,776,-5445,598
22:57:21.318,223,515,656,326,533,798,370,291,606,415,223,503,582,242,1772,-7664,3412,880,-4967,427
22:57:21.344,223,515,656,326,533,798,370,291,606,415,223,503,582,242,1772,-7664,3412,880,-4967,427
22:57:21.361,223,524,663,321,532,790,368,289,602,413,222,495,580,242,1844,-7976,2440,1033,-3707,125
22:57:21.377,223,524,663,321,532,790,368,289,602,413,222,495,580,242,1844,-7976,2440,1033,-3707,125
22:57:21.411,221,523,665,321,531,784,366,289,614,409,220,493,583,241,848,-9076,1464,707,-3708,232
22:57:21.427,221,523,665,321,531,784,366,289,614,409,220,493,583,241,848,-9076,1464,707,-3708,232
22:57:21.444,222,524,663,321,529,780,366,289,620,409,220,498,586,239,-412,-10544,-1512,178,-3748,181
22:57:21.456,220,526,661,319,528,776,366,289,619,409,220,499,585,239,-716,-10916,-2224,237,-3679,143
22:57:21.490,221,529,662,319,527,774,366,289,613,411,221,492,583,239,-348,-9516,-1080,429,-3874,-91
22:57:21.506,222,527,659,318,525,774,364,289,612,411,219,486,584,239,224,-9056,-1172,434,-4026,-167
22:57:21.532,220,526,654,316,521,778,360,289,615,414,219,483,583,239,276,-9156,-1636,321,-3691,-194
22:57:21.549,223,526,652,317,521,775,362,291,614,415,219,482,584,238,404,-9020,-1836,343,-3798,-241
22:57:21.566,220,525,651,317,521,775,360,289,612,415,219,480,583,238,188,-9076,-2164,321,-3465,-269
22:57:21.582,220,525,651,317,521,775,360,289,612,415,219,480,583,238,188,-9076,-2164,321,-3465,-269
22:57:21.599,223,527,655,318,518,774,360,289,608,413,219,494,578,239,-488,-9144,-3004,321,-3515,-431
22:57:21.632,223,527,655,318,518,774,360,289,608,413,219,494,578,239,-488,-9144,-3004,321,-3515,-431
22:57:21.642,221,527,653,314,517,775,359,288,605,411,219,496,577,239,-48,-9072,-2396,460,-3533,-369
22:57:21.659,222,525,644,316,515,769,359,287,601,408,218,499,574,242,384,-7748,-1688,173,-3113,-355
22:57:21.692,222,525,644,316,515,769,359,287,601,408,218,499,574,242,384,-7748,-1688,173,-3113,-355
22:57:21.708,223,523,635,314,512,773,357,285,599,406,218,495,572,245,396,-7848,-1208,6,-2833,-302
22:57:21.725,223,522,631,312,510,774,355,286,598,405,218,489,573,246,424,-7912,-1068,-66,-2661,-186
22:57:21.752,224,519,629,313,509,773,354,285,596,403,217,482,573,248,60,-7280,-1232,-91,-2307,-45
22:57:21.769,224,519,629,313,509,773,354,285,596,403,217,482,573,248,60,-7280,-1232,-91,-2307,-45
22:57:21.785,224,519,629,313,509,773,354,285,596,403,217,482,573,248,60,-7280,-1232,-91,-2307,-45
22:57:21.802,222,513,629,309,509,778,352,283,595,402,217,480,571,249,-92,-6476,-1008,-189,-2814,-3
22:57:21.818,223,512,630,309,507,776,351,283,594,401,216,479,571,249,-88,-6256,-408,-183,-2393,-30
22:57:21.842,223,512,630,309,507,776,351,283,594,401,216,479,571,249,-88,-6256,-408,-183,-2393,-30
22:57:21.859,221,507,627,307,506,785,351,282,591,403,216,472,566,249,-712,-6800,-472,-118,-2466,-163
22:57:21.892,221,507,627,307,506,785,351,282,591,403,216,472,566,249,-712,-6800,-472,-118,-2466,-163
22:57:21.909,221,507,627,307,506,785,351,282,591,403,216,472,566,249,-712,-6800,-472,-118,-2466,-163
22:57:21.926,221,504,625,309,503,799,349,282,588,402,218,471,562,248,-880,-7844,-68,-52,-2372,-339
22:57:21.942,220,503,625,306,506,801,350,281,590,404,218,468,563,250,-676,-8196,-212,-54,-2499,-363
22:57:21.958,220,503,625,306,506,801,350,281,590,404,218,468,563,250,-676,-8196,-212,-54,-2499,-363
22:57:21.986,221,501,612,307,503,805,351,282,604,404,218,468,565,248,-660,-9120,480,66,-1986,106
22:57:22.002,221,501,612,307,503,805,351,282,604,404,218,468,565,248,-660,-9120,480,66,-1986,106
22:57:22.019,221,501,612,307,503,805,351,282,604,404,218,468,565,248,-660,-9120,480,66,-1986,106
22:57:22.052,220,499,607,306,503,810,349,283,599,403,218,470,565,248,-1668,-9632,84,-88,-2187,136
22:57:22.069,220,499,607,306,503,810,349,283,599,403,218,470,565,248,-1668,-9632,84,-88,-2187,136
22:57:22.086,220,499,607,306,503,810,349,283,599,403,218,470,565,248,-1668,-9632,84,-88,-2187,136
22:57:22.111,220,498,604,306,498,811,350,285,592,401,220,475,564,247,-1164,-10028,380,-27,-2229,-29
22:57:22.127,220,498,603,308,498,813,351,286,589,400,220,481,566,246,-948,-10096,80,26,-2449,96
22:57:22.143,220,498,603,308,498,813,351,286,589,400,220,481,566,246,-948,-10096,80,26,-2449,96
22:57:22.160,220,498,603,308,498,813,351,286,589,400,220,481,566,246,-948,-10096,80,26,-2449,96
22:57:22.177,220,498,603,308,498,813,351,286,589,400,220,481,566,246,-948,-10096,80,26,-2449,96
22:57:22.210,220,495,595,305,496,809,349,285,585,401,218,496,560,246,584,-9400,156,484,-2698,-95
22:57:22.218,220,495,595,305,496,809,349,285,585,401,218,496,560,246,584,-9400,156,484,-2698,-95
22:57:22.251,217,488,592,301,495,799,349,280,582,401,218,477,560,244,1368,-8340,184,859,-2286,-51
22:57:22.267,217,488,592,301,495,799,349,280,582,401,218,477,560,244,1368,-8340,184,859,-2286,-51
22:57:22.284,217,488,592,301,495,799,349,280,582,401,218,477,560,244,1368,-8340,184,859,-2286,-51
22:57:22.300,219,490,593,302,494,795,345,280,580,399,217,474,559,244,1288,-7792,12,1014,-1690,93
22:57:22.317,219,488,590,300,491,785,339,279,586,397,215,470,563,244,804,-6652,-8,725,-1523,300
22:57:22.350,218,487,586,298,489,783,337,278,586,396,215,469,566,243,940,-6452,-384,632,-1051,409
22:57:22.362,218,485,586,297,489,782,337,276,588,396,215,467,567,243,984,-6268,-324,463,-1042,417
22:57:22.378,218,485,586,297,489,782,337,276,588,396,215,467,567,243,984,-6268,-324,463,-1042,417
22:57:22.411,216,486,595,295,489,780,335,277,588,395,216,474,567,242,816,-6440,-272,356,-1102,67
22:57:22.428,216,486,595,295,489,780,335,277,588,395,216,474,567,242,816,-6440,-272,356,-1102,67
22:57:22.445,218,485,599,297,493,772,336,277,590,397,215,494,573,243,1308,-6944,-1228,27,-1097,182
22:57:22.471,219,485,599,297,494,773,335,277,591,398,215,501,577,243,1780,-6820,-1768,-190,-1464,285
22:57:22.488,219,485,599,297,494,773,335,277,591,398,215,501,577,243,1780,-6820,-1768,-190,-1464,285
22:57:22.504,219,485,603,298,491,775,335,277,593,398,215,503,577,243,1480,-6592,-1532,-277,-1770,280
22:57:22.521,219,483,600,297,492,773,335,277,591,400,214,510,581,242,1560,-7540,-628,-503,-1066,129
22:57:22.538,219,483,600,297,492,773,335,277,591,400,214,510,581,242,1560,-7540,-628,-503,-1066,129
22:57:22.561,219,483,600,297,492,773,335,277,591,400,214,510,581,242,1560,-7540,-628,-503,-1066,129
22:57:22.578,219,483,595,297,492,772,334,276,588,400,214,510,578,244,2492,-8480,-516,-419,-1185,240
22:57:22.611,217,482,601,296,488,768,333,275,590,399,214,504,567,245,2968,-11060,-924,-215,-689,462
22:57:22.628,220,484,611,297,484,768,331,274,590,399,214,506,565,246,3184,-10928,-1512,-90,-293,467
22:57:22.644,220,483,614,296,482,768,330,274,589,400,215,505,564,246,2976,-10644,-1352,-13,-427,411
22:57:22.661,220,483,614,296,482,768,330,274,589,400,215,505,564,246,2976,-10644,-1352,-13,-427,411
22:57:22.678,220,483,614,296,482,768,330,274,589,400,215,505,564,246,2976,-10644,-1352,-13,-427,411
22:57:22.703,220,483,614,296,482,768,330,274,589,400,215,505,564,246,2976,-10644,-1352,-13,-427,411
22:57:22.721,220,483,614,296,482,768,330,274,589,400,215,505,564,246,2976,-10644,-1352,-13,-427,411
22:57:22.753,220,494,603,298,476,770,328,272,591,400,218,494,562,243,2316,-6372,-492,242,328,-45
22:57:22.770,218,495,602,299,477,769,327,272,593,399,218,491,563,244,2576,-5856,-184,211,631,-50
22:57:22.786,218,495,602,299,477,769,327,272,593,399,218,491,563,244,2576,-5856,-184,211,631,-50
22:57:22.803,218,495,602,299,477,769,327,272,593,399,218,491,563,244,2576,-5856,-184,211,631,-50
22:57:22.819,221,495,594,295,472,768,327,274,589,396,217,487,562,246,2364,-6532,-88,-78,1030,-88
22:57:22.846,221,492,591,296,471,763,326,274,585,395,218,485,567,249,2500,-7432,-432,4,1650,-106
22:57:22.864,221,492,591,296,471,763,326,274,585,395,218,485,567,249,2500,-7432,-432,4,1650,-106
22:57:22.880,221,492,591,297,469,762,324,274,587,393,217,483,570,249,2056,-7812,-736,13,1886,-90
22:57:22.913,222,495,596,295,468,760,323,273,590,394,217,478,578,249,2500,-8368,248,106,2239,-226
22:57:22.924,222,497,602,296,469,759,322,272,591,395,217,479,581,249,2056,-8500,-188,89,2418,-309
22:57:22.941,220,500,608,297,468,758,321,272,590,396,217,482,587,248,1936,-8628,-124,89,2902,-310
22:57:22.958,220,500,608,297,468,758,321,272,590,396,217,482,587,248,1936,-8628,-124,89,2902,-310
22:57:22.990,220,500,608,297,468,758,321,272,590,396,217,482,587,248,1936,-8628,-124,89,2902,-310
22:57:23.007,220,505,608,299,467,755,320,272,583,396,221,486,591,248,1304,-8608,-24,186,3136,-424
22:57:23.018,220,511,612,303,469,756,324,273,577,394,222,491,589,246,1496,-8444,-720,463,3525,-431
22:57:23.051,220,510,611,303,470,755,321,272,576,396,222,492,585,246,808,-8368,-636,527,3466,-364
22:57:23.067,220,510,612,303,470,754,324,273,576,397,222,493,585,246,708,-7940,-280,550,3156,-333
22:57:23.084,218,507,612,302,469,753,323,275,578,395,224,499,582,245,172,-8488,-648,687,2849,-363
22:57:23.100,219,507,614,303,470,754,324,275,576,396,223,499,582,244,-4,-8764,-404,691,2953,-264
22:57:23.129,218,506,613,301,471,754,324,275,576,396,223,494,580,243,-272,-8904,-116,651,2754,-172
22:57:23.146,218,503,603,300,468,754,324,273,575,395,223,492,580,243,-696,-8632,-756,661,2414,-36
22:57:23.162,218,503,603,300,468,754,324,273,575,395,223,492,580,243,-696,-8632,-756,661,2414,-36
22:57:23.179,217,501,590,298,468,748,325,274,583,397,224,488,579,242,-1496,-7428,88,608,1556,158
22:57:23.204,217,499,584,297,471,748,326,275,589,399,224,483,581,242,-1756,-6804,780,527,1669,47
22:57:23.221,218,498,586,300,473,748,327,275,586,399,225,480,577,241,-1332,-7116,596,365,2030,-121
22:57:23.237,218,498,586,300,473,748,327,275,586,399,225,480,577,241,-1332,-7116,596,365,2030,-121
22:57:23.270,218,497,586,299,475,752,325,274,583,400,224,475,572,242,-1500,-8712,176,302,1986,-88
22:57:23.287,218,497,586,299,475,752,325,274,583,400,224,475,572,242,-1500,-8712,176,302,1986,-88
22:57:23.303,215,495,594,299,476,754,324,274,585,399,224,480,569,242,-2004,-9344,-700,221,1735,-198
22:57:23.328,217,494,601,299,476,753,325,273,589,399,224,487,568,241,-2008,-9064,-652,332,1346,-225
22:57:23.345,215,492,603,299,475,751,325,273,592,401,225,492,567,241,-1980,-8780,-736,382,1397,-261
22:57:23.361,215,492,603,299,475,751,325,273,592,401,225,492,567,241,-1980,-8780,-736,382,1397,-261
22:57:23.378,215,492,603,299,475,751,325,273,592,401,225,492,567,241,-1980,-8780,-736,382,1397,-261
22:57:23.411,216,491,611,298,475,751,323,272,599,402,225,503,566,240,-1304,-8448,-288,348,1494,-245
22:57:23.428,216,491,611,298,475,751,323,272,599,402,225,503,566,240,-1304,-8448,-288,348,1494,-245
22:57:23.444,216,490,617,298,477,750,322,272,601,405,226,507,567,241,-1424,-8292,-716,321,1027,-208
22:57:23.471,217,504,635,301,479,750,320,271,610,410,227,520,582,240,-1040,-7252,-704,108,1293,-235
22:57:23.488,218,506,637,298,477,750,320,270,610,412,228,521,583,240,-1704,-7352,-744,49,1304,-260
22:57:23.504,216,508,640,300,479,751,321,271,610,414,229,522,587,241,-1792,-7624,-752,45,1566,-240
22:57:23.521,217,511,646,299,478,752,322,270,610,415,229,523,588,240,-1124,-7516,-264,40,1867,-349
22:57:23.537,216,512,650,300,480,756,323,270,609,419,229,525,590,240,-888,-7756,-444,9,2161,-280
22:57:23.564,218,513,650,301,484,756,324,270,607,419,229,524,592,241,-672,-7840,-452,30,2809,-327
22:57:23.581,218,513,650,301,484,756,324,270,607,419,229,524,592,241,-672,-7840,-452,30,2809,-327
22:57:23.598,218,513,650,301,484,756,324,270,607,419,229,524,592,241,-672,-7840,-452,30,2809,-327
22:57:23.630,218,513,650,301,484,756,324,270,607,419,229,524,592,241,-672,-7840,-452,30,2809,-327
22:57:23.647,218,513,650,301,484,756,324,270,607,419,229,524,592,241,-672,-7840,-452,30,2809,-327
22:57:23.673,218,503,636,299,481,776,319,270,602,424,228,535,604,240,-1500,-7936,1164,-165,3844,-536
22:57:23.689,221,507,631,298,480,778,320,270,608,426,228,540,607,240,-1560,-8352,1192,-70,4522,-462
22:57:23.705,221,516,641,298,494,789,326,270,622,426,228,541,616,251,-3816,-8048,788,-182,4401,-426
22:57:23.722,219,519,647,299,521,790,332,270,633,426,228,536,616,257,-5052,-8440,956,286,4822,-250
22:57:23.738,219,519,647,299,521,790,332,270,633,426,228,536,616,257,-5052,-8440,956,286,4822,-250
22:57:23.772,219,519,647,299,521,790,332,270,633,426,228,536,616,257,-5052,-8440,956,286,4822,-250
22:57:23.788,219,521,657,299,548,791,341,269,643,425,226,530,620,260,-7632,-8408,696,835,4455,126
22:57:23.800,220,523,658,306,584,790,351,269,648,426,225,528,616,262,-8516,-7004,-720,887,4055,283
22:57:23.833,237,518,627,323,632,757,415,273,647,427,224,550,612,277,-4988,-8732,-2312,302,3006,483
22:57:23.850,240,528,615,332,612,749,415,281,644,429,223,565,623,277,300,-8728,-5672,2737,3175,2380
22:57:23.866,240,528,615,332,612,749,415,281,644,429,223,565,623,277,300,-8728,-5672,2737,3175,2380
22:57:23.890,240,528,615,332,612,749,415,281,644,429,223,565,623,277,300,-8728,-5672,2737,3175,2380
22:57:23.907,235,534,617,328,601,747,396,282,635,429,223,573,617,278,-4372,-9852,-3076,46,-941,1354
22:57:23.923,232,524,614,323,598,807,378,289,662,442,226,550,605,282,-4332,-3216,1808,-1081,-9822,1072
22:57:23.940,231,519,621,319,601,826,374,295,682,454,227,552,602,278,-1240,-4880,-600,-537,-10973,883
22:57:23.973,234,514,625,315,606,839,381,306,696,480,230,567,612,273,-1292,-8764,2916,-20,-12099,56
22:57:23.989,230,510,628,307,592,836,381,309,699,520,229,576,624,268,1872,-7588,4504,-1119,-9361,1790
22:57:24.006,231,512,635,308,575,843,383,317,678,518,229,566,617,269,3460,-9524,5088,-409,-6781,2999
22:57:24.023,231,512,635,308,575,843,383,317,678,518,229,566,617,269,3460,-9524,5088,-409,-6781,2999
22:57:24.047,231,512,635,308,575,843,383,317,678,518,229,566,617,269,3460,-9524,5088,-409,-6781,2999
22:57:24.063,227,521,682,308,559,843,377,383,664,562,235,565,615,275,-4912,-4684,568,-2442,-9583,2662
22:57:24.080,227,521,682,308,559,843,377,383,664,562,235,565,615,275,-4912,-4684,568,-2442,-9583,2662
22:57:24.113,228,528,677,311,547,838,370,418,680,627,233,557,620,289,-5928,-7024,6728,-3347,-9771,1539
22:57:24.130,228,533,670,307,543,822,368,415,682,611,233,555,620,289,-1964,-9252,7724,1713,-7074,1211
22:57:24.146,228,533,670,307,543,822,368,415,682,611,233,555,620,289,-1964,-9252,7724,1713,-7074,1211
22:57:24.163,226,541,672,302,533,814,363,384,670,585,231,551,614,278,7608,-11620,8368,8595,-4774,688
22:57:24.189,226,541,672,302,533,814,363,384,670,585,231,551,614,278,7608,-11620,8368,8595,-4774,688
22:57:24.206,229,551,673,304,531,809,361,379,668,583,232,551,613,277,12552,-11440,11600,4171,-3845,886
22:57:24.223,225,554,663,301,527,800,357,375,670,588,231,549,610,275,13608,-5880,12536,-1581,-3478,1143
22:57:24.239,228,557,646,296,528,794,359,375,699,587,229,536,610,271,3964,-1504,3492,-7201,-19,-1579
22:57:24.272,225,554,639,294,529,792,362,376,709,587,230,534,611,270,1084,-4220,2764,-5898,1240,-2407
22:57:24.280,225,558,646,294,530,799,367,378,726,584,231,532,602,272,-36,-16364,1932,1362,4343,-1060
22:57:24.297,225,558,646,294,530,799,367,378,726,584,231,532,602,272,-36,-16364,1932,1362,4343,-1060
22:57:24.331,227,559,659,292,530,797,368,378,733,583,231,534,602,271,560,-13116,-6704,2700,1072,-150
22:57:24.347,224,556,660,290,527,796,366,377,734,581,230,535,603,270,2268,-9304,-1080,-234,-358,129
22:57:24.363,224,556,660,290,527,796,366,377,734,581,230,535,603,270,2268,-9304,-1080,-234,-358,129
22:57:24.380,226,554,659,291,523,793,366,373,731,571,231,542,613,269,4436,-6712,6264,1301,1171,-41
22:57:24.414,225,551,653,291,521,792,364,370,729,569,231,549,613,269,4644,-5284,7424,1571,3251,-340
22:57:24.423,225,551,653,291,521,792,364,370,729,569,231,549,613,269,4644,-5284,7424,1571,3251,-340
22:57:24.439,225,551,653,291,521,792,364,370,729,569,231,549,613,269,4644,-5284,7424,1571,3251,-340
22:57:24.473,225,547,646,291,517,792,364,368,725,564,231,559,615,266,4240,-6160,7368,581,5628,-1002
22:57:24.489,226,540,631,286,519,787,360,358,707,547,231,590,624,265,2524,-6988,2860,71,6910,-1987
22:57:24.506,227,537,632,286,521,789,356,356,697,542,231,603,625,265,3248,-7440,5212,457,6503,-2150
22:57:24.522,225,535,639,283,533,789,354,350,687,534,233,614,628,262,-2740,-7184,5724,676,7888,-1861
22:57:24.547,223,535,644,285,553,793,354,344,682,528,232,613,634,263,-3836,-6868,1396,237,7595,-1069
22:57:24.564,223,535,644,285,553,793,354,344,682,528,232,613,634,263,-3836,-6868,1396,237,7595,-1069
22:57:24.580,225,533,647,286,590,792,362,342,679,529,231,612,636,262,-688,-6696,2496,26,5959,-728
22:57:24.596,223,533,647,292,608,791,363,341,678,530,232,611,637,262,-4980,-7284,2228,24,5553,-674
22:57:24.630,223,533,647,292,608,791,363,341,678,530,232,611,637,262,-4980,-7284,2228,24,5553,-674
22:57:24.647,223,531,642,301,618,784,367,341,676,525,231,608,639,262,-8024,-5584,3008,-5,3841,-459
22:57:24.663,227,546,620,332,640,750,406,338,663,525,233,596,644,263,-2400,-9064,264,866,4664,-3575
22:57:24.689,227,546,620,332,640,750,406,338,663,525,233,596,644,263,-2400,-9064,264,866,4664,-3575
22:57:24.705,227,546,620,332,640,750,406,338,663,525,233,596,644,263,-2400,-9064,264,866,4664,-3575
22:57:24.722,239,531,615,351,653,748,414,340,655,522,237,585,645,263,2076,-14152,-1596,2037,7325,-3372
22:57:24.739,233,540,598,334,616,745,391,333,652,518,234,597,648,263,-3132,-8972,-620,-632,-313,-1077
22:57:24.772,232,541,598,330,615,744,391,331,659,514,233,592,646,262,-11060,-11836,2404,-4349,-6916,-1192
22:57:24.788,231,530,596,330,614,744,385,327,655,511,233,575,647,261,-7028,-3304,8788,-7000,-8216,67
22:57:24.798,231,530,596,330,614,744,385,327,655,511,233,575,647,261,-7028,-3304,8788,-7000,-8216,67
22:57:24.832,233,518,605,339,619,819,379,319,657,502,230,563,626,260,352,-13644,-1200,5164,-3054,2107
22:57:24.848,233,518,605,339,619,819,379,319,657,502,230,563,626,260,352,-13644,-1200,5164,-3054,2107
22:57:24.865,231,513,622,319,617,833,377,315,655,495,230,554,618,258,532,-11928,2580,-833,-2710,-801
22:57:24.881,231,513,622,319,617,833,377,315,655,495,230,554,618,258,532,-11928,2580,-833,-2710,-801
22:57:24.907,227,510,620,312,582,836,374,312,661,490,229,546,615,258,-852,-6536,1516,1198,-3819,376
22:57:24.924,228,512,629,313,574,835,373,312,660,489,229,543,615,258,-952,-7820,2136,1124,-4398,364
22:57:24.940,228,512,629,313,574,835,373,312,660,489,229,543,615,258,-952,-7820,2136,1124,-4398,364
22:57:24.957,227,520,640,308,561,831,370,311,662,490,229,542,611,256,-4,-8340,2876,582,-4965,289
22:57:24.990,227,520,640,308,561,831,370,311,662,490,229,542,611,256,-4,-8340,2876,582,-4965,289
22:57:25.006,227,520,640,308,561,831,370,311,662,490,229,542,611,256,-4,-8340,2876,582,-4965,289
22:57:25.017,227,520,640,308,561,831,370,311,662,490,229,542,611,256,-4,-8340,2876,582,-4965,289
22:57:25.050,224,524,663,306,539,816,368,309,668,487,226,548,609,256,436,-8592,2012,-405,-5653,402
22:57:25.067,224,524,663,306,539,816,368,309,668,487,226,548,609,256,436,-8592,2012,-405,-5653,402
22:57:25.083,225,526,666,307,537,816,368,309,667,486,225,547,607,257,-956,-9124,592,-670,-5427,341
22:57:25.100,225,526,666,307,537,816,368,309,667,486,225,547,607,257,-956,-9124,592,-670,-5427,341
22:57:25.124,225,526,666,307,537,816,368,309,667,486,225,547,607,257,-956,-9124,592,-670,-5427,341
22:57:25.141,225,526,666,307,537,816,368,309,667,486,225,547,607,257,-956,-9124,592,-670,-5427,341
22:57:25.157,225,529,665,303,529,792,363,310,663,486,223,546,603,256,-108,-8168,612,-61,-4483,290
22:57:25.190,224,531,663,302,528,789,361,310,663,486,223,544,603,257,212,-8244,652,51,-4220,451
22:57:25.207,220,527,657,298,523,786,357,309,663,485,222,539,602,257,-1276,-8664,-632,-164,-3773,616
22:57:25.223,221,527,652,300,522,785,356,309,661,485,222,538,599,257,-1332,-8764,-1336,-43,-3496,378
22:57:25.240,221,527,652,300,522,785,356,309,661,485,222,538,599,257,-1332,-8764,-1336,-43,-3496,378
22:57:25.257,222,523,646,300,520,783,355,309,658,483,222,538,599,256,-1724,-8608,-1496,145,-3418,481
22:57:25.284,223,516,634,298,516,792,351,307,656,482,221,534,596,256,-1792,-8424,-1620,357,-3337,480
22:57:25.301,223,516,634,298,516,792,351,307,656,482,221,534,596,256,-1792,-8424,-1620,357,-3337,480
22:57:25.317,223,516,634,298,516,792,351,307,656,482,221,534,596,256,-1792,-8424,-1620,357,-3337,480
22:57:25.350,221,506,624,296,513,807,348,305,635,473,221,543,591,256,-1252,-8096,-1076,216,-3975,92
22:57:25.360,221,506,624,296,513,807,348,305,635,473,221,543,591,256,-1252,-8096,-1076,216,-3975,92
22:57:25.393,221,505,622,294,513,807,348,302,636,471,220,529,589,255,-336,-8276,-844,275,-3768,63
22:57:25.410,221,505,622,294,513,807,348,302,636,471,220,529,589,255,-336,-8276,-844,275,-3768,63
22:57:25.426,222,503,620,293,510,808,347,301,642,466,219,522,589,255,-732,-7936,-1200,259,-3094,180
22:57:25.443,222,503,620,293,510,808,347,301,642,466,219,522,589,255,-732,-7936,-1200,259,-3094,180
22:57:25.459,222,503,618,293,508,805,346,300,645,468,219,520,591,256,-692,-7092,-788,306,-3239,299
22:57:25.486,220,500,616,291,507,802,346,300,645,468,218,519,592,255,-524,-6804,-1264,308,-2842,328
22:57:25.503,221,500,615,291,508,799,345,300,646,468,219,519,591,255,-628,-6536,-588,251,-2868,296
22:57:25.519,222,499,614,292,506,796,345,299,647,469,218,521,592,256,-696,-6480,-912,252,-3068,257
22:57:25.552,222,500,612,290,505,790,344,299,650,469,219,521,593,256,-628,-6500,-928,210,-2572,375
22:57:25.569,222,498,612,291,504,789,345,300,653,470,219,515,596,257,-932,-7136,-276,29,-3044,418
22:57:25.585,222,498,612,291,504,789,345,300,653,470,219,515,596,257,-932,-7136,-276,29,-3044,418
22:57:25.609,222,498,612,291,504,789,345,300,653,470,219,515,596,257,-932,-7136,-276,29,-3044,418
22:57:25.626,222,498,612,291,504,791,344,300,654,469,218,512,597,257,-1272,-7440,-932,-148,-2960,360
22:57:25.643,222,496,612,291,504,799,343,300,656,468,218,514,596,256,-1140,-8264,-772,4,-3509,345
22:57:25.659,222,496,612,291,504,799,343,300,656,468,218,514,596,256,-1140,-8264,-772,4,-3509,345
22:57:25.692,221,494,614,290,502,811,342,300,647,466,220,523,589,255,-932,-8304,-192,-142,-4019,-191
22:57:25.709,221,494,614,290,502,811,342,300,647,466,220,523,589,255,-932,-8304,-192,-142,-4019,-191
22:57:25.726,222,493,616,292,503,813,343,298,648,469,220,510,584,255,-200,-8732,-236,-129,-4245,-143
22:57:25.753,221,494,615,291,503,813,342,299,656,469,221,508,582,253,-52,-9040,4,-153,-4180,-143
22:57:25.770,220,491,615,289,499,812,344,298,663,472,221,512,583,253,96,-9020,-316,-107,-4271,-173
22:57:25.786,220,491,615,289,499,812,344,298,663,472,221,512,583,253,96,-9020,-316,-107,-4271,-173
22:57:25.803,218,492,612,287,499,805,341,298,655,473,220,525,580,252,780,-7604,-148,425,-3975,-118
22:57:25.820,218,492,612,287,499,805,341,298,655,473,220,525,580,252,780,-7604,-148,425,-3975,-118
22:57:25.845,217,500,605,285,496,798,341,299,657,472,220,526,580,251,1836,-7752,800,536,-3738,26
22:57:25.862,217,500,605,285,496,798,341,299,657,472,220,526,580,251,1836,-7752,800,536,-3738,26
22:57:25.879,217,500,605,285,496,798,341,299,657,472,220,526,580,251,1836,-7752,800,536,-3738,26
22:57:25.912,219,501,599,286,491,791,334,297,661,473,219,515,574,252,828,-8420,-284,-32,-3272,213
22:57:25.928,219,501,599,286,491,791,334,297,661,473,219,515,574,252,828,-8420,-284,-32,-3272,213
22:57:25.937,219,501,599,286,491,791,334,297,661,473,219,515,574,252,828,-8420,-284,-32,-3272,213
22:57:25.970,220,502,604,284,488,788,335,295,661,477,218,504,572,254,1308,-9388,324,523,-2540,71
22:57:25.987,220,502,604,284,488,788,335,295,661,477,218,504,572,254,1308,-9388,324,523,-2540,71
22:57:26.003,219,503,605,284,486,788,333,298,641,483,218,514,585,256,1224,-8812,304,316,-1784,525
22:57:26.020,219,503,605,284,486,788,333,298,641,483,218,514,585,256,1224,-8812,304,316,-1784,525
22:57:26.053,220,496,592,280,483,789,327,301,633,517,219,545,606,257,1136,-8780,784,670,-598,712
22:57:26.070,220,496,592,280,483,789,327,301,633,517,219,545,606,257,1136,-8780,784,670,-598,712
22:57:26.079,220,496,592,280,483,789,327,301,633,517,219,545,606,257,1136,-8780,784,670,-598,712
22:57:26.112,220,493,586,281,482,788,329,302,631,538,219,556,607,258,1448,-8484,-984,569,-136,977
22:57:26.129,220,493,586,281,480,782,329,308,624,539,221,554,608,258,752,-6928,-3096,30,-1098,908
22:57:26.145,220,493,586,281,480,782,329,308,624,539,221,554,608,258,752,-6928,-3096,30,-1098,908
22:57:26.162,220,491,590,281,483,780,331,322,624,541,221,548,614,256,980,-6868,-3000,-142,-2679,501
22:57:26.178,217,489,590,277,484,783,334,332,626,535,223,544,612,256,1484,-7168,-1608,-38,-2851,270
22:57:26.204,219,486,585,279,485,781,335,335,628,524,223,540,607,254,2808,-8288,-424,435,-2391,189
22:57:26.219,219,486,585,279,485,781,335,335,628,524,223,540,607,254,2808,-8288,-424,435,-2391,189
22:57:26.253,219,486,580,279,481,774,333,322,621,521,220,552,605,254,3080,-8520,696,125,-965,205
22:57:26.269,219,486,580,279,481,774,333,322,621,521,220,552,605,254,3080,-8520,696,125,-965,205
22:57:26.286,218,485,583,279,479,776,330,320,622,517,219,561,608,255,2416,-7832,-88,-369,-972,161
22:57:26.302,218,487,582,280,478,776,331,318,623,514,218,567,610,254,1508,-8036,-1116,-644,-997,2
22:57:26.319,218,487,582,280,478,776,331,318,623,514,218,567,610,254,1508,-8036,-1116,-644,-997,2
22:57:26.345,215,486,587,278,477,772,327,315,627,514,217,578,615,252,944,-7900,-20,148,-1184,66
22:57:26.361,215,486,587,278,477,772,327,315,627,514,217,578,615,252,944,-7900,-20,148,-1184,66
22:57:26.378,217,491,589,279,478,773,326,314,628,515,217,581,617,253,1104,-7452,-164,5,-807,43
22:57:26.411,217,491,579,279,476,771,323,313,625,514,218,584,619,250,1760,-7748,-660,-365,-1229,200
22:57:26.428,217,488,570,278,476,769,325,311,623,508,218,581,619,250,880,-7924,-484,-512,-1316,160
22:57:26.444,217,488,570,278,476,769,325,311,623,508,218,581,619,250,880,-7924,-484,-512,-1316,160
22:57:26.471,216,484,564,278,475,767,323,309,625,505,219,584,617,253,792,-7840,400,-388,-1789,-59
22:57:26.488,216,484,564,278,475,767,323,309,625,505,219,584,617,253,792,-7840,400,-388,-1789,-59
22:57:26.504,216,484,563,277,473,766,327,307,627,502,218,583,612,256,1244,-8916,468,-299,-1123,20
22:57:26.521,216,484,563,277,473,766,327,307,627,502,218,583,612,256,1244,-8916,468,-299,-1123,20
22:57:26.537,216,484,563,277,473,766,327,307,627,502,218,583,612,256,1244,-8916,468,-299,-1123,20
22:57:26.561,216,484,563,277,473,766,327,307,627,502,218,583,612,256,1244,-8916,468,-299,-1123,20
22:57:26.578,215,479,556,277,474,766,327,301,626,494,217,556,596,252,1032,-9628,48,193,-641,978
22:57:26.611,217,481,555,274,473,765,326,301,623,491,217,551,596,251,1188,-9028,-512,236,-554,1092
22:57:26.628,215,480,554,275,478,769,327,300,627,493,215,550,592,253,1456,-8160,-432,163,-928,1280
22:57:26.644,217,480,554,277,474,767,328,299,636,492,215,550,592,253,1704,-7576,-1000,-38,-939,1219
22:57:26.661,217,480,554,277,474,767,328,299,636,492,215,550,592,253,1704,-7576,-1000,-38,-939,1219
22:57:26.677,217,480,554,277,474,767,328,299,636,492,215,550,592,253,1704,-7576,-1000,-38,-939,1219
22:57:26.704,217,480,554,277,474,767,328,299,636,492,215,550,592,253,1704,-7576,-1000,-38,-939,1219
22:57:26.721,216,481,554,276,474,766,326,300,640,495,215,554,591,253,2220,-7148,-1052,-195,-852,1181
22:57:26.737,216,479,561,276,478,764,327,300,622,493,215,544,607,251,2196,-5752,-3356,-1050,-2697,225
22:57:26.770,215,476,559,276,482,766,329,301,624,489,215,540,602,250,3196,-6340,-548,-558,-3757,-27
22:57:26.787,217,482,582,278,485,771,329,295,638,512,213,542,594,247,8356,-7996,7816,-26,-1406,-86
22:57:26.804,217,487,591,278,482,773,328,293,641,520,213,545,597,247,5856,-8932,3776,-2144,331,173
22:57:26.829,217,487,591,278,482,773,328,293,641,520,213,545,597,247,5856,-8932,3776,-2144,331,173
22:57:26.845,217,487,591,278,482,773,328,293,641,520,213,545,597,247,5856,-8932,3776,-2144,331,173
22:57:26.862,219,495,579,277,487,767,325,291,636,514,213,557,621,247,1700,-5688,640,-634,-2463,-651
22:57:26.879,219,495,579,277,487,767,325,291,636,514,213,557,621,247,1700,-5688,640,-634,-2463,-651
22:57:26.912,218,507,611,277,486,763,323,296,637,517,215,588,620,248,3792,-8464,2196,-290,-513,-1520
22:57:26.928,218,507,611,277,486,763,323,296,637,517,215,588,620,248,3792,-8464,2196,-290,-513,-1520
22:57:26.953,218,518,622,275,487,762,325,296,642,512,216,600,626,249,4380,-8488,2064,-303,-506,-849
22:57:26.970,218,518,622,275,487,762,325,296,642,512,216,600,626,249,4380,-8488,2064,-303,-506,-849
22:57:26.986,220,519,624,276,489,759,325,297,640,513,215,603,626,250,4040,-7984,1804,-372,171,-959
22:57:27.003,220,519,624,271,489,761,321,297,642,511,215,604,626,251,3136,-8136,1780,-355,359,-897
22:57:27.020,220,519,624,271,489,761,321,297,642,511,215,604,626,251,3136,-8136,1780,-355,359,-897
22:57:27.053,220,519,624,271,489,761,321,297,642,511,215,604,626,251,3136,-8136,1780,-355,359,-897
22:57:27.069,220,519,624,271,489,761,321,297,642,511,215,604,626,251,3136,-8136,1780,-355,359,-897
22:57:27.080,220,521,631,274,491,764,323,297,644,507,215,602,619,252,3980,-8728,1752,13,984,-1236
22:57:27.097,218,514,643,272,488,760,323,297,634,502,215,598,619,252,4256,-8820,1740,661,1285,-1513
22:57:27.130,218,514,643,272,488,760,323,297,634,502,215,598,619,252,4256,-8820,1740,661,1285,-1513
22:57:27.146,218,514,643,272,488,760,323,297,634,502,215,598,619,252,4256,-8820,1740,661,1285,-1513
22:57:27.163,219,504,654,273,483,757,331,294,639,497,216,582,621,250,4124,-9548,4072,1695,4142,-1861
22:57:27.191,219,504,654,273,483,757,331,294,639,497,216,582,621,250,4124,-9548,4072,1695,4142,-1861
22:57:27.207,219,504,654,273,483,757,331,294,639,497,216,582,621,250,4124,-9548,4072,1695,4142,-1861
22:57:27.224,218,502,637,270,478,757,328,290,631,488,215,567,617,249,2544,-7128,4840,2426,7466,-1849
22:57:27.240,220,504,630,271,480,759,327,290,633,487,215,564,613,248,876,-6616,4808,2197,8677,-1932
22:57:27.257,220,504,630,271,480,759,327,290,633,487,215,564,613,248,876,-6616,4808,2197,8677,-1932
22:57:27.284,219,510,631,271,489,759,331,290,642,481,213,560,603,247,-2464,-6032,4304,1132,10369,-2066
22:57:27.301,219,510,631,271,489,759,331,290,642,481,213,560,603,247,-2464,-6032,4304,1132,10369,-2066
22:57:27.317,218,515,641,277,525,749,348,292,639,479,212,557,600,247,-4120,-6588,2656,936,9733,-1813
22:57:27.350,218,513,648,291,567,764,366,294,623,475,212,555,598,246,-5624,-7748,2136,1263,8634,-1266
22:57:27.360,218,513,648,291,567,764,366,294,623,475,212,555,598,246,-5624,-7748,2136,1263,8634,-1266
22:57:27.377,218,513,648,291,567,764,366,294,623,475,212,555,598,246,-5624,-7748,2136,1263,8634,-1266
22:57:27.410,222,514,620,301,625,782,409,299,611,463,214,546,590,247,-6980,-6336,3068,-787,3410,-2144
22:57:27.427,223,522,615,303,643,769,422,303,609,461,215,546,587,247,-3548,-7208,3448,-1943,2392,-2476
22:57:27.443,223,522,615,303,643,769,422,303,609,461,215,546,587,247,-3548,-7208,3448,-1943,2392,-2476
22:57:27.460,239,521,632,315,689,756,458,312,611,458,214,545,588,249,-1352,-9208,-648,-2055,3746,-2033
22:57:27.486,239,521,632,315,689,756,458,312,611,458,214,545,588,249,-1352,-9208,-648,-2055,3746,-2033
22:57:27.502,239,521,632,315,689,756,458,312,611,458,214,545,588,249,-1352,-9208,-648,-2055,3746,-2033
22:57:27.519,239,521,632,315,689,756,458,312,611,458,214,545,588,249,-1352,-9208,-648,-2055,3746,-2033
22:57:27.552,231,521,601,315,646,745,416,306,610,455,220,546,591,248,-4816,-11396,3040,3963,3416,-1748
22:57:27.569,229,517,595,303,637,742,402,303,599,459,218,529,592,248,-7284,-3684,3444,2125,1234,202
22:57:27.579,229,517,595,303,637,742,402,303,599,459,218,529,592,248,-7284,-3684,3444,2125,1234,202
22:57:27.612,227,503,589,298,637,737,398,301,605,452,218,529,582,247,-1840,-6304,3760,-1755,-3052,4
22:57:27.629,227,499,592,296,639,739,401,296,602,446,215,528,583,245,-2536,-10744,2648,-4004,-6641,-882
22:57:27.645,227,499,592,296,639,739,401,296,602,446,215,528,583,245,-2536,-10744,2648,-4004,-6641,-882
22:57:27.662,227,499,592,296,639,739,401,296,602,446,215,528,583,245,-2536,-10744,2648,-4004,-6641,-882
22:57:27.678,230,500,598,299,640,799,403,293,610,442,215,529,582,244,-2480,-8376,1500,-2390,-3836,-307
22:57:27.703,230,500,598,299,640,799,403,293,610,442,215,529,582,244,-2480,-8376,1500,-2390,-3836,-307
22:57:27.720,230,500,598,299,640,799,403,293,610,442,215,529,582,244,-2480,-8376,1500,-2390,-3836,-307
22:57:27.753,233,503,611,298,634,830,407,292,621,439,214,528,582,247,-3816,-7824,2832,1370,-2067,620
22:57:27.769,233,503,611,298,634,830,407,292,621,439,214,528,582,247,-3816,-7824,2832,1370,-2067,620
22:57:27.786,233,503,628,293,624,833,404,293,622,439,213,521,581,248,-4504,-7684,2452,409,-1872,515
22:57:27.803,231,503,633,292,618,831,402,293,618,438,213,520,580,247,-4440,-6708,1968,-146,-2095,425
22:57:27.819,230,502,645,290,612,829,399,291,618,439,213,520,580,247,-4008,-7152,1052,-341,-2972,424
22:57:27.845,230,505,663,288,592,829,398,290,625,440,213,514,581,247,-3592,-6976,1568,-1322,-4181,956
22:57:27.862,230,505,663,288,592,829,398,290,625,440,213,514,581,247,-3592,-6976,1568,-1322,-4181,956
22:57:27.879,230,508,670,289,584,829,396,290,630,440,213,516,580,247,-3428,-7624,2160,-1534,-4550,950
22:57:27.912,229,509,677,289,574,829,395,289,635,440,213,517,581,247,-3196,-7720,2092,-1021,-4076,1184
22:57:27.929,227,520,685,288,559,817,390,291,637,440,213,524,582,246,-4324,-7448,1796,-589,-5217,1218
22:57:27.937,227,520,685,288,559,817,390,291,637,440,213,524,582,246,-4324,-7448,1796,-589,-5217,1218
22:57:27.970,228,524,686,288,558,812,387,291,639,440,212,523,581,246,-2200,-7496,2380,-1321,-6327,839
22:57:27.987,228,529,685,289,557,806,385,292,642,440,214,523,580,246,-2620,-7420,2156,-1171,-5718,1001
22:57:28.004,228,529,685,289,557,806,385,292,642,440,214,523,580,246,-2620,-7420,2156,-1171,-5718,1001
22:57:28.020,227,536,688,284,549,800,381,293,636,442,213,525,580,246,-2456,-6824,1980,-650,-6051,721
22:57:28.037,228,538,685,285,551,801,381,294,636,442,213,527,579,246,-2360,-6852,2060,-810,-5949,586
22:57:28.063,227,542,669,284,542,807,375,295,641,444,212,527,582,245,-2508,-7988,1940,-625,-6381,560
22:57:28.080,227,542,669,284,542,807,375,295,641,444,212,527,582,245,-2508,-7988,1940,-625,-6381,560
22:57:28.113,226,543,651,282,535,800,377,297,628,441,211,525,580,245,-1884,-8228,2392,-254,-5875,744
22:57:28.130,226,543,651,282,535,800,377,297,628,441,211,525,580,245,-1884,-8228,2392,-254,-5875,744
22:57:28.147,226,543,651,282,535,800,377,297,628,441,211,525,580,245,-1884,-8228,2392,-254,-5875,744
22:57:28.163,225,539,642,281,535,800,374,295,624,438,210,531,578,246,-1588,-7712,3044,-270,-5026,767
22:57:28.190,223,534,640,278,536,805,373,294,622,438,210,534,576,245,-1888,-8048,2516,-314,-4811,760
22:57:28.206,225,531,639,278,530,809,368,291,619,435,209,533,573,244,-2704,-8316,1420,-361,-4491,1046
22:57:28.223,225,531,639,278,530,809,368,291,619,435,209,533,573,244,-2704,-8316,1420,-361,-4491,1046
22:57:28.240,222,524,634,273,526,807,364,290,615,434,208,532,572,245,-2760,-7880,1616,-199,-4140,925
22:57:28.265,222,524,634,273,526,807,364,290,615,434,208,532,572,245,-2760,-7880,1616,-199,-4140,925
22:57:28.282,224,523,633,274,529,808,364,289,615,434,208,530,572,243,-2440,-7728,1664,-148,-4170,983
22:57:28.299,224,523,633,274,529,808,364,289,615,434,208,530,572,243,-2440,-7728,1664,-148,-4170,983
22:57:28.332,223,519,626,275,522,795,360,287,611,430,208,515,570,243,-1624,-7636,1292,-160,-3886,996
22:57:28.349,223,519,626,275,522,795,360,287,611,430,208,515,570,243,-1624,-7636,1292,-160,-3886,996
22:57:28.365,224,521,622,273,523,792,359,286,609,431,207,510,570,243,-1416,-7956,1568,-55,-3655,893
22:57:28.381,224,521,622,273,523,792,359,286,609,431,207,510,570,243,-1416,-7956,1568,-55,-3655,893
22:57:28.409,224,521,622,273,523,792,359,286,609,431,207,510,570,243,-1416,-7956,1568,-55,-3655,893
22:57:28.425,224,521,622,273,523,792,359,286,609,431,207,510,570,243,-1416,-7956,1568,-55,-3655,893
22:57:28.441,224,520,619,274,521,790,360,286,607,431,208,509,571,244,-1232,-8048,1756,-102,-3824,857
22:57:28.458,223,519,614,274,518,791,358,286,614,433,208,521,570,244,-756,-9308,1200,-68,-3340,831
22:57:28.491,225,519,613,273,518,792,358,286,618,434,207,527,570,245,-212,-9500,896,-123,-3431,822
22:57:28.500,222,517,610,271,517,794,359,287,617,435,208,528,570,246,396,-9212,284,-39,-3429,800
22:57:28.533,223,515,604,273,518,793,358,286,607,436,207,521,573,246,744,-8672,524,326,-3530,989
22:57:28.549,223,515,604,273,518,793,358,286,607,436,207,521,573,246,744,-8672,524,326,-3530,989
22:57:28.566,221,513,601,271,516,783,358,285,602,437,207,512,572,247,1192,-7508,632,250,-2926,959
22:57:28.583,221,513,601,271,516,783,358,285,602,437,207,512,572,247,1192,-7508,632,250,-2926,959
22:57:28.599,223,513,599,273,516,781,355,284,601,437,207,513,572,248,1516,-7520,324,335,-3003,1050
22:57:28.624,223,513,601,274,516,781,355,282,602,438,207,521,573,248,1768,-7916,652,316,-2585,1080
22:57:28.641,223,511,599,274,515,780,353,281,603,439,208,527,576,249,1936,-8248,588,218,-2352,1093
22:57:28.657,223,511,599,274,515,780,353,281,603,439,208,527,576,249,1936,-8248,588,218,-2352,1093
22:57:28.691,222,508,605,273,511,777,347,280,603,441,208,541,594,246,1880,-8404,1172,205,-1966,738
22:57:28.707,222,508,605,273,511,777,347,280,603,441,208,541,594,246,1880,-8404,1172,205,-1966,738
22:57:28.724,221,509,608,271,506,776,349,282,600,443,208,549,608,247,1960,-8232,340,167,-1031,549
22:57:28.740,221,509,608,271,506,776,349,282,600,443,208,549,608,247,1960,-8232,340,167,-1031,549
22:57:28.757,221,509,608,271,506,776,349,282,600,443,208,549,608,247,1960,-8232,340,167,-1031,549
22:57:28.783,223,508,600,274,503,772,346,282,595,438,209,532,609,245,2296,-7476,660,175,-528,539
22:57:28.800,223,508,600,274,503,772,346,282,595,438,209,532,609,245,2296,-7476,660,175,-528,539
22:57:28.832,222,505,594,272,503,773,348,281,593,435,208,522,604,245,1916,-6712,40,37,-625,517
22:57:28.849,222,505,594,272,503,773,348,281,593,435,208,522,604,245,1916,-6712,40,37,-625,517
22:57:28.866,222,508,594,271,501,769,343,279,603,431,207,519,591,244,2096,-6404,356,-229,-80,406
22:57:28.892,222,508,594,271,501,769,343,279,603,431,207,519,591,244,2096,-6404,356,-229,-80,406
22:57:28.909,221,509,605,270,503,767,344,278,621,432,206,520,585,245,2552,-7340,1116,-339,-232,383
22:57:28.925,221,509,605,270,503,767,344,278,621,432,206,520,585,245,2552,-7340,1116,-339,-232,383
22:57:28.942,222,510,614,271,503,762,344,279,637,432,206,523,582,245,2064,-8408,488,-511,502,269
22:57:28.958,221,510,614,268,504,762,343,279,643,432,206,525,582,245,2260,-8196,-92,-303,401,280
22:57:28.985,221,509,615,270,505,764,344,279,645,432,205,525,580,245,1940,-8300,16,-123,394,274
22:57:29.002,219,509,604,267,503,759,342,278,649,432,205,522,577,245,2464,-9024,956,90,548,54
22:57:29.018,219,509,604,267,503,759,342,278,649,432,205,522,577,245,2464,-9024,956,90,548,54
22:57:29.051,220,507,599,267,500,762,343,276,655,432,206,516,574,243,2964,-10040,88,92,870,-102
22:57:29.068,220,507,599,267,500,762,343,276,655,432,206,516,574,243,2964,-10040,88,92,870,-102
22:57:29.085,221,507,597,266,499,761,342,278,651,431,205,512,570,245,2724,-10388,496,237,816,-340
22:57:29.109,221,507,597,266,499,761,342,278,651,431,205,512,570,245,2724,-10388,496,237,816,-340
22:57:29.125,221,507,597,266,499,761,342,278,651,431,205,512,570,245,2724,-10388,496,237,816,-340
22:57:29.142,220,503,598,266,495,762,341,278,630,427,205,508,573,244,2068,-8980,504,550,1168,-674
22:57:29.159,221,502,596,267,495,760,341,279,624,425,205,509,574,245,2556,-8128,360,749,1032,-829
22:57:29.192,221,499,585,266,492,762,343,279,619,424,205,503,576,244,2008,-7512,380,787,1359,-1001
22:57:29.208,220,498,584,265,491,760,344,279,618,424,205,499,574,245,1756,-7304,484,798,1657,-1161
22:57:29.225,220,498,584,265,491,760,344,279,618,424,205,499,574,245,1756,-7304,484,798,1657,-1161
22:57:29.241,220,498,584,265,491,760,344,279,618,424,205,499,574,245,1756,-7304,484,798,1657,-1161
22:57:29.266,221,495,602,263,490,769,349,279,613,423,205,496,569,245,1184,-6780,220,713,1551,-1446
22:57:29.282,221,495,602,263,490,769,349,279,613,423,205,496,569,245,1184,-6780,220,713,1551,-1446
22:57:29.298,221,495,602,263,490,769,349,279,613,423,205,496,569,245,1184,-6780,220,713,1551,-1446
22:57:29.332,219,496,614,264,493,775,351,279,611,423,205,497,564,243,1016,-6600,-80,614,1837,-1636
22:57:29.349,221,495,621,266,494,780,352,279,610,423,205,497,562,243,436,-6224,-16,414,1907,-1896
22:57:29.365,221,495,621,266,494,780,352,279,610,423,205,497,562,243,436,-6224,-16,414,1907,-1896
22:57:29.382,220,497,629,266,504,791,353,279,605,420,206,497,563,244,200,-7076,-612,19,2025,-1973
22:57:29.410,220,497,629,266,504,791,353,279,605,420,206,497,563,244,200,-7076,-612,19,2025,-1973
22:57:29.426,221,496,636,264,510,779,352,278,606,420,207,508,563,244,-960,-7796,-1704,-122,1511,-2174
22:57:29.443,221,496,636,264,510,779,352,278,606,420,207,508,563,244,-960,-7796,-1704,-122,1511,-2174
22:57:29.460,220,495,634,267,515,779,351,276,603,420,207,509,563,245,-1096,-7804,-1160,136,923,-2180
22:57:29.486,218,494,629,265,515,776,348,276,603,420,207,509,563,244,-1972,-9024,-988,186,1000,-2119
22:57:29.502,218,494,629,265,515,776,348,276,603,420,207,509,563,244,-1972,-9024,-988,186,1000,-2119
22:57:29.519,220,491,616,264,513,775,344,277,607,420,207,503,569,243,-1580,-10288,-604,340,931,-1459
22:57:29.552,219,491,621,264,510,775,345,277,611,421,206,503,572,243,-1908,-10520,-528,238,1023,-926
22:57:29.568,219,491,621,264,510,775,345,277,611,421,206,503,572,243,-1908,-10520,-528,238,1023,-926
22:57:29.585,220,491,623,263,505,780,343,276,610,421,206,504,574,243,-3412,-10020,-1784,41,376,-342
22:57:29.612,220,488,626,261,501,780,342,277,611,423,205,501,573,241,-3756,-10096,-1456,132,-335,114
22:57:29.628,220,488,631,262,501,785,343,277,613,424,205,498,572,242,-3472,-9856,-1504,-78,-551,365
22:57:29.645,220,491,635,261,500,782,342,276,612,428,205,493,570,242,-2580,-8760,-1388,-216,-1719,600
22:57:29.661,220,491,635,261,500,782,342,276,612,428,205,493,570,242,-2580,-8760,-1388,-216,-1719,600
22:57:29.678,220,491,635,261,500,782,342,276,612,428,205,493,570,242,-2580,-8760,-1388,-216,-1719,600
22:57:29.703,218,493,628,260,496,773,338,277,606,432,205,493,570,241,-2092,-8256,-1132,-333,-2415,984
22:57:29.720,220,496,628,262,495,768,338,274,600,435,205,499,574,242,-3048,-7500,-1020,-362,-3778,1255
22:57:29.753,220,496,626,261,493,768,336,274,601,439,205,508,576,245,-3076,-7172,-32,-456,-4332,1286
22:57:29.770,220,502,625,262,492,765,335,279,596,463,205,546,574,247,-2812,-7572,2036,-604,-4162,1531
22:57:29.786,220,502,625,262,492,765,335,279,596,463,205,546,574,247,-2812,-7572,2036,-604,-4162,1531
22:57:29.803,220,502,625,262,492,765,335,279,596,463,205,546,574,247,-2812,-7572,2036,-604,-4162,1531
22:57:29.820,220,502,625,262,492,765,335,279,596,463,205,546,574,247,-2812,-7572,2036,-604,-4162,1531
22:57:29.847,219,500,613,259,489,767,336,289,621,508,207,562,578,250,-1744,-7636,1984,-950,-3177,1717
22:57:29.864,219,500,613,259,489,767,336,289,621,508,207,562,578,250,-1744,-7636,1984,-950,-3177,1717
22:57:29.881,219,501,605,261,492,762,336,297,633,528,209,562,590,253,-2484,-7572,1364,-1087,-2935,1765
22:57:29.897,219,500,605,261,491,761,335,302,635,531,210,563,594,258,-2088,-8596,2456,-908,-2680,1734
22:57:29.922,219,500,605,261,491,761,335,302,635,531,210,563,594,258,-2088,-8596,2456,-908,-2680,1734
22:57:29.939,220,499,606,262,491,763,335,307,638,539,211,559,597,260,-1732,-9456,3500,-787,-2083,1988
22:57:29.971,220,491,599,265,485,754,335,363,632,556,217,552,610,257,-808,-7472,-4072,-1685,-2608,2130
22:57:29.988,220,491,599,265,485,754,335,363,632,556,217,552,610,257,-808,-7472,-4072,-1685,-2608,2130
22:57:30.033,220,487,589,266,481,757,351,378,629,546,225,541,611,252,-224,-9060,2816,507,-4140,-6
22:57:30.033,220,487,589,266,481,757,351,378,629,546,225,541,611,252,-224,-9060,2816,507,-4140,-6
22:57:30.049,220,487,589,266,481,757,351,378,629,546,225,541,611,252,-224,-9060,2816,507,-4140,-6
22:57:30.066,220,485,603,265,480,747,341,359,629,538,224,537,606,253,2280,-10108,5696,446,-1896,470
22:57:30.083,220,484,600,266,479,751,339,356,627,539,224,534,605,254,1368,-7824,5740,-53,-406,126
22:57:30.099,220,484,600,266,479,751,339,356,627,539,224,534,605,254,1368,-7824,5740,-53,-406,126
22:57:30.125,218,480,580,263,477,747,335,349,655,531,219,532,599,253,-1072,-8988,2764,-208,540,-290
22:57:30.141,218,481,575,262,474,746,334,349,658,530,219,533,600,255,-2592,-10404,1116,105,702,-264
22:57:30.158,218,481,575,262,474,746,334,349,658,530,219,533,600,255,-2592,-10404,1116,105,702,-264
22:57:30.191,218,481,575,262,474,746,334,349,658,530,219,533,600,255,-2592,-10404,1116,105,702,-264
22:57:30.208,217,478,569,259,475,744,334,344,662,527,218,559,597,252,96,-8592,2548,1201,-2232,-611
22:57:30.224,217,478,569,259,475,744,334,344,662,527,218,559,597,252,96,-8592,2548,1201,-2232,-611
22:57:30.241,217,478,569,259,475,744,334,344,662,527,218,559,597,252,96,-8592,2548,1201,-2232,-611
22:57:30.257,216,476,577,258,471,741,332,343,655,522,218,580,611,253,-404,-6940,2468,201,318,-337
22:57:30.283,216,476,577,258,471,741,332,343,655,522,218,580,611,253,-404,-6940,2468,201,318,-337
22:57:30.299,217,476,579,259,471,741,331,341,656,524,219,582,612,253,-844,-6336,-68,-447,280,-323
22:57:30.332,216,476,580,257,469,745,330,339,657,527,219,586,607,252,-36,-8548,-8,646,-1017,23
22:57:30.348,215,477,582,257,472,748,330,338,644,521,218,593,614,253,224,-7648,2032,652,-1160,350
22:57:30.365,215,478,581,256,472,745,327,338,636,519,217,597,617,252,-220,-6844,1584,306,-596,190
22:57:30.382,215,478,581,256,472,745,327,338,636,519,217,597,617,252,-220,-6844,1584,306,-596,190
22:57:30.407,216,478,583,258,475,747,328,333,625,516,218,596,621,251,484,-8104,736,55,-927,270
22:57:30.423,216,478,583,258,475,747,328,333,625,516,218,596,621,251,484,-8104,736,55,-927,270
22:57:30.440,216,478,583,258,475,747,328,333,625,516,218,596,621,251,484,-8104,736,55,-927,270
22:57:30.473,216,481,581,258,472,749,323,328,620,508,219,592,623,249,624,-8364,284,-310,-551,705
22:57:30.489,216,481,581,258,472,749,323,328,620,508,219,592,623,249,624,-8364,284,-310,-551,705
22:57:30.506,216,482,577,258,475,749,325,326,624,501,218,589,612,249,1008,-11368,460,272,-1040,1085
22:57:30.522,216,482,577,258,475,749,325,326,624,501,218,589,612,249,1008,-11368,460,272,-1040,1085
22:57:30.551,216,485,576,257,476,744,325,322,628,497,218,578,606,249,1372,-10924,-400,209,-1917,1273
22:57:30.568,216,485,576,257,476,744,325,322,628,497,218,578,606,249,1372,-10924,-400,209,-1917,1273
22:57:30.584,215,482,579,256,475,744,324,320,629,493,218,559,600,247,2236,-10616,0,315,-2278,1135
22:57:30.600,217,479,583,258,476,742,324,317,625,491,217,556,598,247,2368,-10144,428,324,-2264,1219
22:57:30.624,215,478,583,258,475,744,322,316,623,488,216,554,598,247,2072,-9796,460,303,-2205,1131
22:57:30.641,214,478,589,257,473,745,324,315,616,489,217,551,597,247,1740,-9144,412,373,-2141,1053
22:57:30.657,214,478,589,257,473,745,324,315,616,489,217,551,597,247,1740,-9144,412,373,-2141,1053
22:57:30.691,215,477,591,258,473,744,322,314,612,489,216,548,597,246,1080,-8332,632,261,-2201,981
22:57:30.707,214,479,591,258,473,744,321,313,614,493,215,549,592,246,1776,-7628,1308,491,-1936,961
22:57:30.724,215,480,577,257,472,745,323,312,617,494,214,551,593,248,1060,-6536,1412,349,-1317,1083
22:57:30.740,215,480,577,257,472,745,323,312,617,494,214,551,593,248,1060,-6536,1412,349,-1317,1083
22:57:30.766,214,476,569,254,469,742,323,312,617,507,213,559,593,250,1484,-5652,2124,270,-1385,1035
22:57:30.783,214,476,569,254,469,742,323,312,617,507,213,559,593,250,1484,-5652,2124,270,-1385,1035
22:57:30.800,214,473,569,253,468,741,327,314,613,527,213,565,596,251,2284,-5820,1800,292,-851,1097
22:57:30.833,215,472,571,254,467,743,330,316,612,534,213,561,598,250,2784,-5420,1112,-273,-527,1164
22:57:30.849,214,472,585,252,470,740,327,332,611,537,212,546,598,249,2428,-4228,-2796,-852,-2071,769
22:57:30.866,214,472,585,252,470,740,327,332,611,537,212,546,598,249,2428,-4228,-2796,-852,-2071,769
22:57:30.892,214,471,593,255,485,745,341,356,623,530,215,534,599,264,2604,-9052,-248,61,-3887,200
22:57:30.909,214,471,593,255,485,745,341,356,623,530,215,534,599,264,2604,-9052,-248,61,-3887,200
22:57:30.925,214,471,593,255,485,745,341,356,623,530,215,534,599,264,2604,-9052,-248,61,-3887,200
22:57:30.942,216,468,583,255,493,729,329,336,617,528,216,529,610,258,3892,-9116,1024,256,-3295,153
22:57:30.959,216,468,583,255,493,729,329,336,617,528,216,529,610,258,3892,-9116,1024,256,-3295,153
22:57:30.991,215,468,587,255,481,755,331,332,625,523,213,578,609,258,7704,-5764,6352,-1082,-142,-1175
22:57:31.001,215,468,587,255,481,755,331,332,625,523,213,578,609,258,7704,-5764,6352,-1082,-142,-1175
22:57:31.018,217,472,595,259,486,757,330,327,616,524,212,577,621,258,2524,-7532,-936,-1510,1151,-269
22:57:31.051,217,471,599,259,490,757,327,325,615,517,213,577,626,257,2616,-10148,-1140,-171,425,-592
22:57:31.067,217,475,614,260,497,760,325,325,613,518,215,583,637,256,3228,-9320,1428,712,-369,-1082
22:57:31.084,217,475,614,260,497,760,325,325,613,518,215,583,637,256,3228,-9320,1428,712,-369,-1082
22:57:31.101,217,475,614,260,497,760,325,325,613,518,215,583,637,256,3228,-9320,1428,712,-369,-1082
22:57:31.125,217,475,614,260,497,760,325,325,613,518,215,583,637,256,3228,-9320,1428,712,-369,-1082
22:57:31.142,217,481,624,261,499,762,325,323,610,518,215,591,644,254,5344,-7504,2372,717,122,-1362
22:57:31.158,218,492,636,263,507,763,331,316,609,509,216,604,639,256,5276,-8044,3304,468,2508,-1812
22:57:31.191,218,492,636,263,507,763,331,316,609,509,216,604,639,256,5276,-8044,3304,468,2508,-1812
22:57:31.208,217,494,644,260,508,764,332,315,618,505,219,615,649,254,4488,-8548,3232,712,4081,-1777
22:57:31.224,217,494,644,260,508,764,332,315,618,505,219,615,649,254,4488,-8548,3232,712,4081,-1777
22:57:31.241,217,494,644,260,508,764,332,315,618,505,219,615,649,254,4488,-8548,3232,712,4081,-1777
22:57:31.267,219,489,648,261,512,763,332,314,619,503,222,620,654,254,4060,-8416,2376,1058,4766,-1757
22:57:31.284,217,481,652,259,508,763,332,312,614,494,223,610,655,253,2876,-7588,2820,1480,6307,-1927
22:57:31.301,217,481,652,259,508,763,332,312,614,494,223,610,655,253,2876,-7588,2820,1480,6307,-1927
22:57:31.317,218,483,650,260,509,760,331,311,614,491,222,601,652,252,2548,-7240,2588,1607,6853,-2039
22:57:31.350,218,491,652,258,506,754,330,310,622,484,220,576,639,251,476,-7040,3700,1316,8658,-2443
22:57:31.359,218,491,652,258,506,754,330,310,622,484,220,576,639,251,476,-7040,3700,1316,8658,-2443
22:57:31.392,217,494,633,257,503,759,331,306,633,482,218,571,629,251,-596,-7300,3532,1029,9391,-2460
22:57:31.408,218,498,629,258,501,759,329,307,636,482,218,570,625,250,-1548,-7700,3480,1040,9688,-2567
22:57:31.425,218,504,629,258,501,759,335,306,633,480,217,565,622,251,-3288,-7676,2940,1099,9217,-2455
22:57:31.442,218,504,629,258,501,759,335,306,633,480,217,565,622,251,-3288,-7676,2940,1099,9217,-2455
22:57:31.458,215,506,640,260,524,757,351,305,610,477,216,564,620,251,-4836,-6356,2952,1156,8828,-2153
22:57:31.492,215,506,640,260,524,757,351,305,610,477,216,564,620,251,-4836,-6356,2952,1156,8828,-2153
22:57:31.502,218,506,640,269,547,763,358,306,607,475,215,564,617,251,-4864,-6672,3428,1303,8334,-1727
22:57:31.520,219,508,649,277,588,771,372,306,602,471,215,560,616,251,-6804,-6888,3292,900,6742,-469
22:57:31.553,218,508,636,281,626,764,383,305,602,468,216,558,614,251,-8008,-6020,2764,-2222,3531,-1486
22:57:31.569,218,508,636,281,626,764,383,305,602,468,216,558,614,251,-8008,-6020,2764,-2222,3531,-1486
22:57:31.577,218,508,636,281,626,764,383,305,602,468,216,558,614,251,-8008,-6020,2764,-2222,3531,-1486
22:57:31.611,225,517,623,302,654,743,422,310,595,464,215,547,611,252,-2256,-9800,2000,832,5621,-1743
22:57:31.627,225,517,623,302,654,743,422,310,595,464,215,547,611,252,-2256,-9800,2000,832,5621,-1743
22:57:31.643,239,514,627,320,667,742,429,311,592,464,215,549,611,252,-572,-9312,-880,1391,6763,-1141
22:57:31.660,249,519,631,328,663,742,431,312,590,463,216,553,609,252,2084,-8852,-1936,2417,6924,421
22:57:31.677,236,517,608,319,623,736,399,305,601,460,215,543,608,253,-4832,-8480,4380,-1592,-1101,-1980
22:57:31.710,236,517,608,319,623,736,399,305,601,460,215,543,608,253,-4832,-8480,4380,-1592,-1101,-1980
22:57:31.719,236,517,608,319,623,736,399,305,601,460,215,543,608,253,-4832,-8480,4380,-1592,-1101,-1980
22:57:31.752,229,502,600,302,613,729,371,301,601,453,214,546,603,251,-2880,-5772,940,-1686,-1838,546
22:57:31.769,229,502,600,302,613,729,371,301,601,453,214,546,603,251,-2880,-5772,940,-1686,-1838,546
22:57:31.785,229,496,601,300,613,729,380,295,603,447,212,545,606,250,-3012,-11784,2812,-1424,-4528,-268
22:57:31.802,229,496,601,300,613,729,380,295,603,447,212,545,606,250,-3012,-11784,2812,-1424,-4528,-268
22:57:31.819,228,491,602,306,615,728,379,294,604,447,211,544,605,249,-3004,-12908,4148,-1724,-3910,-347
22:57:31.845,228,490,602,303,616,731,380,293,610,445,212,546,604,248,-2328,-8996,2312,651,-1064,-100
22:57:31.861,230,491,603,303,620,739,382,292,615,445,212,545,603,247,-1852,-8200,812,345,-1197,168
22:57:31.878,230,491,603,303,620,739,382,292,615,445,212,545,603,247,-1852,-8200,812,345,-1197,168
22:57:31.911,232,494,612,297,620,788,382,293,625,446,211,545,604,248,-4224,-8048,3768,-517,-2819,700
22:57:31.928,232,494,612,297,620,788,382,293,625,446,211,545,604,248,-4224,-8048,3768,-517,-2819,700
22:57:31.944,236,497,626,297,617,810,380,292,631,447,211,539,603,247,-3408,-7884,1600,-35,-2626,857
22:57:31.970,236,497,626,297,617,810,380,292,631,447,211,539,603,247,-3408,-7884,1600,-35,-2626,857
22:57:31.987,233,497,643,296,607,817,382,293,636,447,210,536,602,248,-3672,-6708,2756,29,-2834,1297
22:57:32.003,230,496,651,294,599,818,382,294,636,447,211,535,603,248,-3436,-6556,2760,-226,-3110,1206
22:57:32.020,230,496,651,294,599,818,382,294,636,447,211,535,603,248,-3436,-6556,2760,-226,-3110,1206
22:57:32.053,230,494,665,292,576,822,377,295,647,448,210,537,599,250,-2828,-7016,2656,-515,-4178,1680
22:57:32.070,228,499,667,287,571,820,377,295,647,449,210,538,600,250,-2452,-7480,1824,-728,-4337,1449
22:57:32.077,228,499,667,287,571,820,377,295,647,449,210,538,600,250,-2452,-7480,1824,-728,-4337,1449
22:57:32.110,228,502,667,289,562,819,376,295,649,451,210,540,599,249,-2608,-6944,1724,-767,-4053,1424
22:57:32.127,229,510,675,294,550,815,370,295,654,451,210,538,597,250,-2992,-7000,2224,-267,-4362,1523
22:57:32.144,229,510,675,294,550,815,370,295,654,451,210,538,597,250,-2992,-7000,2224,-267,-4362,1523
22:57:32.160,229,510,675,294,550,815,370,295,654,451,210,538,597,250,-2992,-7000,2224,-267,-4362,1523
22:57:32.177,229,513,678,295,551,816,371,295,656,452,210,539,597,250,-2768,-7424,2128,-429,-4892,1319
22:57:32.210,227,520,674,293,548,814,367,296,658,451,209,538,596,249,-2648,-7720,2692,-602,-4929,911
22:57:32.220,229,521,673,288,545,813,365,295,659,451,210,537,595,248,-2108,-7712,2476,-637,-5333,898
22:57:32.237,228,522,673,290,544,809,366,295,657,450,209,536,594,248,-2520,-7304,2492,-593,-5130,917
22:57:32.270,228,522,673,290,544,809,366,295,657,450,209,536,594,248,-2520,-7304,2492,-593,-5130,917
22:57:32.286,228,525,672,287,543,812,366,295,658,447,209,535,593,248,-2544,-7468,2448,-495,-5448,946
22:57:32.303,225,528,662,286,534,806,362,295,652,444,209,534,589,246,-2160,-7336,2744,-496,-5764,1030
22:57:32.329,225,528,662,286,534,806,362,295,652,444,209,534,589,246,-2160,-7336,2744,-496,-5764,1030
22:57:32.346,227,528,658,287,533,806,360,293,651,442,209,532,587,246,-2240,-7328,2720,-641,-5811,1014
22:57:32.362,225,528,647,286,530,809,360,293,650,442,209,531,588,246,-2040,-7656,2692,-539,-5486,951
22:57:32.378,226,528,642,286,528,812,359,293,647,441,209,532,586,246,-2300,-7800,2372,-515,-5598,1067
22:57:32.412,224,523,635,282,525,813,357,292,645,440,209,532,586,246,-2168,-7748,2552,-418,-5312,1031
22:57:32.429,225,520,632,285,525,813,357,292,643,438,209,532,585,246,-1796,-7876,2448,-342,-4870,1080
22:57:32.440,224,517,628,283,523,810,354,292,641,438,209,533,589,245,-2056,-7952,2376,-250,-5076,959
22:57:32.473,224,517,629,284,523,811,356,292,638,438,209,533,586,245,-2184,-7956,2404,-213,-4781,1005
22:57:32.490,224,517,629,284,523,811,356,292,638,438,209,533,586,245,-2184,-7956,2404,-213,-4781,1005
22:57:32.506,225,518,624,282,521,811,354,292,637,437,208,532,586,245,-1652,-7816,2692,-167,-3993,1074
22:57:32.523,225,513,623,283,520,811,353,291,636,437,207,532,585,245,-1612,-7960,2452,-96,-3640,1115
22:57:32.551,225,513,623,283,520,811,353,291,636,437,207,532,585,245,-1612,-7960,2452,-96,-3640,1115
22:57:32.568,222,512,625,280,519,807,352,290,633,437,208,534,585,245,-2292,-8008,1860,-37,-3460,1285
22:57:32.584,222,512,622,281,518,805,351,291,631,435,208,535,584,244,-1880,-7828,1892,76,-3428,1233
22:57:32.611,223,511,619,281,518,805,350,289,627,436,208,536,583,245,-1656,-7524,1940,15,-3584,1266
22:57:32.627,222,510,619,280,519,804,350,289,623,438,207,540,581,245,-844,-7876,1664,5,-3184,1362
22:57:32.644,222,510,619,280,519,804,350,289,623,438,207,540,581,245,-844,-7876,1664,5,-3184,1362
22:57:32.660,222,510,619,280,519,804,350,289,623,438,207,540,581,245,-844,-7876,1664,5,-3184,1362
22:57:32.677,223,509,618,281,520,801,349,288,622,437,207,540,579,245,-268,-8568,1484,-88,-3178,1493
22:57:32.710,223,507,619,280,520,792,349,289,620,437,207,533,577,245,500,-8644,948,-98,-2962,1601
22:57:32.721,223,507,619,280,520,792,349,289,620,437,207,533,577,245,500,-8644,948,-98,-2962,1601
22:57:32.737,223,507,619,280,520,792,349,289,620,437,207,533,577,245,500,-8644,948,-98,-2962,1601
22:57:32.770,222,505,627,279,517,783,347,288,620,440,207,517,575,245,1284,-8528,880,-164,-2345,2221
22:57:32.787,222,505,627,279,517,783,347,288,620,440,207,517,575,245,1284,-8528,880,-164,-2345,2221
22:57:32.803,222,504,628,278,516,781,346,288,621,443,207,516,575,245,2124,-8660,1492,-124,-2361,2490
22:57:32.821,222,504,628,278,516,781,346,288,621,443,207,516,575,245,2124,-8660,1492,-124,-2361,2490
22:57:32.845,222,504,628,278,516,781,346,288,621,443,207,516,575,245,2124,-8660,1492,-124,-2361,2490
22:57:32.862,221,503,625,278,513,774,342,286,620,443,207,511,581,244,2688,-8304,1136,239,-1798,1831
22:57:32.878,221,502,622,277,517,774,343,285,621,444,207,506,584,243,3216,-8484,1204,354,-1623,1482
22:57:32.912,221,501,614,276,515,769,343,285,616,444,207,505,590,244,3940,-8292,872,366,-1578,1449
22:57:32.929,219,500,611,275,514,770,343,285,616,443,207,503,593,243,3724,-7968,924,378,-1710,1447
22:57:32.938,219,500,611,275,514,770,343,285,616,443,207,503,593,243,3724,-7968,924,378,-1710,1447
22:57:32.971,219,500,611,275,514,770,343,285,616,443,207,503,593,243,3724,-7968,924,378,-1710,1447
22:57:32.988,221,498,609,275,512,765,342,284,620,440,207,504,597,244,2648,-7160,992,421,-1472,1050
22:57:33.004,221,498,609,275,512,765,342,284,620,440,207,504,597,244,2648,-7160,992,421,-1472,1050
22:57:33.021,221,498,609,275,512,765,342,284,620,440,207,504,597,244,2648,-7160,992,421,-1472,1050
22:57:33.037,222,498,608,274,511,763,343,284,621,439,207,505,591,244,2508,-7020,1248,548,-1032,844
22:57:33.062,222,495,601,274,505,759,342,281,624,447,206,527,586,247,2112,-6856,1512,184,-525,763
22:57:33.079,222,495,596,274,505,756,340,281,626,453,205,540,592,249,2044,-6716,1676,-59,-532,711
22:57:33.112,222,495,596,274,505,756,340,281,626,453,205,540,592,249,2044,-6716,1676,-59,-532,711
22:57:33.128,221,494,596,272,502,751,341,283,630,477,206,552,605,253,3112,-8180,2936,347,-78,864
22:57:33.145,222,495,595,272,501,754,342,284,630,483,205,553,606,253,3740,-8844,3252,417,286,1302
22:57:33.162,222,495,595,272,501,754,342,284,630,483,205,553,606,253,3740,-8844,3252,417,286,1302
22:57:33.178,222,495,595,272,501,754,342,284,630,483,205,553,606,253,3740,-8844,3252,417,286,1302
22:57:33.204,220,499,610,269,497,750,343,303,624,540,209,541,604,254,3548,-6052,-524,-499,-449,1654
22:57:33.219,222,500,614,271,497,749,339,316,620,538,211,538,601,255,3028,-6688,-2500,-424,-1465,1226
22:57:33.253,220,495,606,268,500,759,348,361,622,539,217,530,593,263,1932,-10172,760,142,-3141,-109
22:57:33.269,220,495,606,268,500,759,348,361,622,539,217,530,593,263,1932,-10172,760,142,-3141,-109
22:57:33.286,222,495,600,270,501,756,346,337,626,521,218,525,585,260,4372,-9036,588,494,-2235,332
22:57:33.302,222,495,600,270,501,756,346,337,626,521,218,525,585,260,4372,-9036,588,494,-2235,332
22:57:33.319,223,493,600,268,497,742,339,333,627,521,217,525,589,256,7140,-9444,3720,872,-653,645
22:57:33.346,223,493,600,268,497,742,339,333,627,521,217,525,589,256,7140,-9444,3720,872,-653,645
22:57:33.362,223,492,590,263,491,743,333,330,620,523,216,533,596,255,5204,-6384,2640,-726,332,-317
22:57:33.379,223,492,590,263,491,743,333,330,620,523,216,533,596,255,5204,-6384,2640,-726,332,-317
22:57:33.412,221,489,586,267,493,743,332,326,618,516,215,560,609,255,2456,-8696,-952,319,-208,-142
22:57:33.429,221,489,586,267,493,743,332,326,618,516,215,560,609,255,2456,-8696,-952,319,-208,-142
22:57:33.438,220,488,586,265,492,743,331,325,612,517,214,571,618,254,2168,-8332,-68,432,-516,-43
22:57:33.471,219,489,595,263,490,744,333,321,615,514,212,591,625,252,4092,-5940,776,693,-942,-638
22:57:33.487,219,488,588,263,488,742,330,318,622,500,212,593,632,252,3656,-5852,1096,356,-599,-596
22:57:33.504,219,488,588,263,488,742,330,318,622,500,212,593,632,252,3656,-5852,1096,356,-599,-596
22:57:33.521,220,488,586,264,487,741,329,316,623,495,212,593,635,251,3720,-5688,1156,110,-942,-710
22:57:33.537,218,486,582,264,487,736,328,312,620,491,213,595,632,250,3356,-6816,1920,74,-307,-982
22:57:33.561,218,486,582,264,487,736,328,312,620,491,213,595,632,250,3356,-6816,1920,74,-307,-982
22:57:33.577,218,485,580,262,485,735,329,311,618,490,213,594,632,249,3080,-7264,1484,-314,37,-873
22:57:33.611,220,484,580,262,486,735,329,310,617,491,211,595,637,249,3276,-7508,736,-354,252,-853
22:57:33.627,219,483,580,261,483,735,331,309,625,491,213,597,636,250,2840,-8072,696,-212,-508,-1031
22:57:33.644,219,483,580,261,483,735,331,309,625,491,213,597,636,250,2840,-8072,696,-212,-508,-1031
22:57:33.660,220,483,582,262,484,736,332,308,634,490,213,597,632,248,2964,-8164,700,-195,-33,-1050
22:57:33.693,219,482,580,261,483,739,329,301,660,479,210,569,617,247,3204,-8488,404,-265,-128,-1249
22:57:33.710,218,482,578,259,482,737,327,302,664,474,209,561,610,246,3080,-8512,436,-243,-474,-1017
22:57:33.717,218,482,578,259,482,737,327,302,664,474,209,561,610,246,3080,-8512,436,-243,-474,-1017
22:57:33.750,220,481,581,261,481,735,331,299,670,469,208,555,598,247,3168,-8012,920,-247,-751,-595
22:57:33.767,220,481,581,261,481,735,331,299,670,469,208,555,598,247,3168,-8012,920,-247,-751,-595
22:57:33.784,220,481,581,261,481,735,331,299,670,469,208,555,598,247,3168,-8012,920,-247,-751,-595
22:57:33.800,220,483,575,260,480,737,328,299,675,472,208,553,594,247,2316,-7864,804,-269,-532,-700
22:57:33.817,220,483,575,260,480,737,328,299,675,472,208,553,594,247,2316,-7864,804,-269,-532,-700
22:57:33.849,219,483,575,260,479,742,326,300,678,470,209,554,591,247,2364,-9472,932,-609,-748,-1000
22:57:33.866,220,483,576,262,478,746,324,300,675,471,208,555,590,248,2692,-9100,936,-702,-321,-1013
22:57:33.892,219,480,565,260,479,755,320,301,681,474,209,554,585,247,2944,-9212,1164,-479,-387,-958
22:57:33.908,219,479,567,260,480,760,323,297,680,471,208,554,584,247,2796,-8904,1196,-377,-382,-1145
22:57:33.925,219,479,567,260,480,760,323,297,680,471,208,554,584,247,2796,-8904,1196,-377,-382,-1145
22:57:33.941,218,479,573,259,478,765,323,293,677,462,208,538,578,245,1940,-8048,1036,46,-1021,-1526
22:57:33.958,218,479,573,259,478,765,323,293,677,462,208,538,578,245,1940,-8048,1036,46,-1021,-1526
22:57:33.991,218,478,575,259,481,765,323,289,679,455,207,536,583,244,1804,-7356,2032,430,-259,-1721
22:57:34.000,218,478,575,259,481,765,323,289,679,455,207,536,583,244,1804,-7356,2032,430,-259,-1721
22:57:34.033,217,476,579,256,480,767,320,288,677,454,207,535,581,245,1440,-7532,2252,464,-99,-1730
22:57:34.049,217,476,579,256,480,767,320,288,677,454,207,535,581,245,1440,-7532,2252,464,-99,-1730
22:57:34.066,219,477,582,257,481,767,323,287,670,450,206,532,583,245,524,-7464,2372,586,709,-1872
22:57:34.083,218,477,588,258,483,772,323,288,667,449,205,525,578,246,152,-7824,2048,526,838,-1855
22:57:34.099,218,477,588,258,483,772,323,288,667,449,205,525,578,246,152,-7824,2048,526,838,-1855
22:57:34.126,217,475,596,257,483,776,324,286,676,449,206,524,569,246,-1172,-9224,2296,808,1250,-1361
22:57:34.142,218,476,603,259,484,778,325,285,675,450,206,524,568,246,-1580,-9236,1644,775,831,-1034
22:57:34.159,218,476,603,259,484,778,325,285,675,450,206,524,568,246,-1580,-9236,1644,775,831,-1034
22:57:34.192,218,479,607,261,486,781,326,285,663,454,206,526,566,247,-2680,-8512,1416,720,1096,-742
22:57:34.208,217,477,608,262,489,783,331,288,649,460,208,530,568,244,-2848,-8372,1756,757,1191,62
22:57:34.225,217,477,608,262,489,783,331,288,649,460,208,530,568,244,-2848,-8372,1756,757,1191,62
22:57:34.251,217,477,608,262,489,783,331,288,649,460,208,530,568,244,-2848,-8372,1756,757,1191,62
22:57:34.268,219,478,601,267,490,783,332,292,644,467,210,532,565,242,-3500,-8256,1540,-88,471,899
22:57:34.284,218,478,600,269,490,784,335,293,642,472,211,532,569,242,-3460,-8112,1856,-275,193,1027
22:57:34.301,217,473,598,267,488,782,336,293,641,477,213,532,572,242,-3300,-8116,2284,-276,-194,1106
22:57:34.318,217,473,598,267,488,782,336,293,641,477,213,532,572,242,-3300,-8116,2284,-276,-194,1106
22:57:34.351,218,474,594,267,485,781,333,295,643,486,214,533,578,241,-2372,-8408,2220,-717,-319,1293
22:57:34.361,219,474,592,270,486,781,333,294,644,489,214,531,581,241,-2336,-8132,1940,-1109,-528,1292
22:57:34.378,218,475,591,269,483,772,334,294,645,498,215,531,587,244,-2500,-7460,1040,-804,-1786,1182
22:57:34.411,218,477,588,268,483,768,332,293,647,505,214,530,588,248,-2552,-7492,1472,-563,-1538,1141
22:57:34.428,218,477,588,268,483,768,332,293,647,505,214,530,588,248,-2552,-7492,1472,-563,-1538,1141
22:57:34.444,218,477,588,268,483,768,332,293,647,505,214,530,588,248,-2552,-7492,1472,-563,-1538,1141
22:57:34.470,217,475,583,268,479,758,338,338,647,542,221,532,589,251,-632,-6904,784,-1883,-2899,1701
22:57:34.486,217,475,583,268,479,758,338,338,647,542,221,532,589,251,-632,-6904,784,-1883,-2899,1701
22:57:34.503,217,475,583,268,479,758,338,338,647,542,221,532,589,251,-632,-6904,784,-1883,-2899,1701
22:57:34.520,218,474,583,268,480,755,353,364,644,580,228,530,602,249,-68,-7708,-524,-1734,-4990,2056
22:57:34.553,220,473,577,271,483,752,347,345,633,545,232,518,593,251,-940,-7828,3688,33,-3844,1702
22:57:34.569,220,473,577,271,483,752,347,345,633,545,232,518,593,251,-940,-7828,3688,33,-3844,1702
22:57:34.579,220,473,577,271,483,752,347,345,633,545,232,518,593,251,-940,-7828,3688,33,-3844,1702
22:57:34.612,217,476,581,269,477,753,338,338,628,538,230,516,586,249,2164,-7048,5676,-294,-1785,1862
22:57:34.629,217,476,581,269,477,753,338,338,628,538,230,516,586,249,2164,-7048,5676,-294,-1785,1862
22:57:34.645,218,472,571,268,477,755,336,335,626,539,228,508,588,249,2064,-3756,1752,-905,-879,620
22:57:34.662,218,472,571,268,477,755,336,335,626,539,228,508,588,249,2064,-3756,1752,-905,-879,620
22:57:34.678,219,471,570,267,479,758,337,334,627,540,228,508,583,249,3428,-4976,-532,-84,-1697,801
22:57:34.702,219,471,570,267,479,758,337,334,627,540,228,508,583,249,3428,-4976,-532,-84,-1697,801
22:57:34.719,218,475,593,262,477,760,334,329,632,533,225,514,591,250,4912,-6612,2112,481,-3199,351
22:57:34.752,219,478,606,263,480,759,336,327,638,530,225,518,588,249,5992,-6932,2204,889,-3466,-114
22:57:34.770,219,482,616,262,480,761,337,326,646,531,225,520,589,248,6920,-8752,2948,472,-3316,-192
22:57:34.786,220,487,624,264,483,766,335,323,652,527,224,531,593,249,7672,-9900,4240,-12,-2124,-270
22:57:34.802,220,487,624,264,483,766,335,323,652,527,224,531,593,249,7672,-9900,4240,-12,-2124,-270
22:57:34.819,222,494,636,267,495,765,339,321,655,522,225,567,618,251,6600,-8228,2788,-187,-1988,-164
22:57:34.842,222,494,636,267,495,765,339,321,655,522,225,567,618,251,6600,-8228,2788,-187,-1988,-164
22:57:34.859,221,496,643,265,497,763,339,320,660,522,224,579,623,249,5488,-7752,3324,162,-1606,-617
22:57:34.893,223,503,649,268,503,763,339,318,669,520,225,599,625,251,6052,-8748,3400,879,-983,-1874
22:57:34.909,223,503,649,268,503,763,339,318,669,520,225,599,625,251,6052,-8748,3400,879,-983,-1874
22:57:34.926,223,512,656,269,506,758,340,312,679,505,226,607,634,251,6604,-8348,3856,1660,510,-2496
22:57:34.942,223,512,656,269,506,758,340,312,679,505,226,607,634,251,6604,-8348,3856,1660,510,-2496
22:57:34.959,223,512,656,269,506,758,340,312,679,505,226,607,634,251,6604,-8348,3856,1660,510,-2496
22:57:34.984,223,520,665,269,507,754,341,309,679,495,228,616,645,249,6428,-8496,5004,2847,3399,-3088
22:57:35.001,223,520,665,269,507,754,341,309,679,495,228,616,645,249,6428,-8496,5004,2847,3399,-3088
22:57:35.018,223,520,668,270,508,751,340,307,659,495,230,616,657,249,4684,-8168,5056,2812,5727,-2759
22:57:35.051,223,516,671,270,512,754,343,305,652,493,230,614,661,247,3976,-7740,5148,2534,6565,-2535
22:57:35.068,223,516,671,270,512,754,343,305,652,493,230,614,661,247,3976,-7740,5148,2534,6565,-2535
22:57:35.084,222,505,645,267,509,774,338,301,643,480,231,597,647,248,984,-6528,5724,2359,9696,-2694
22:57:35.100,222,505,645,267,509,774,338,301,643,480,231,597,647,248,984,-6528,5724,2359,9696,-2694
22:57:35.128,223,508,642,263,503,784,338,300,647,473,229,595,637,247,-1728,-6060,4456,1933,10044,-2890
22:57:35.144,224,516,644,260,504,784,344,298,655,467,227,588,633,248,-4120,-5436,5072,1865,9552,-2951
22:57:35.160,224,516,644,260,504,784,344,298,655,467,227,588,633,248,-4120,-5436,5072,1865,9552,-2951
22:57:35.177,221,518,647,261,511,781,348,298,653,466,226,585,631,251,-4780,-5488,5060,1844,9269,-3125
22:57:35.210,222,521,644,261,526,778,353,299,652,466,226,584,629,254,-5060,-5896,4752,2076,9103,-2881
22:57:35.217,222,521,644,261,526,778,353,299,652,466,226,584,629,254,-5060,-5896,4752,2076,9103,-2881
22:57:35.250,220,518,639,285,605,759,373,301,634,463,225,573,627,264,-7952,-6096,2872,2389,8088,-1550
22:57:35.267,225,514,622,291,631,757,397,302,630,462,225,569,624,262,-10468,-4352,1340,-276,3891,-1376
22:57:35.283,228,512,617,295,632,759,406,302,627,460,225,567,622,261,-6516,-8128,872,-517,2668,-2007
22:57:35.300,228,512,617,295,632,759,406,302,627,460,225,567,622,261,-6516,-8128,872,-517,2668,-2007
22:57:35.317,232,524,610,314,660,739,434,307,620,457,225,565,619,261,-600,-8144,2328,630,3798,-1778
22:57:35.350,232,524,610,314,660,739,434,307,620,457,225,565,619,261,-600,-8144,2328,630,3798,-1778
22:57:35.366,236,531,611,327,679,736,447,308,616,457,223,562,618,261,-408,-8528,408,1074,5181,-1124
22:57:35.392,246,526,604,317,649,735,424,305,608,455,228,565,617,262,-1432,-11136,-1216,3761,5161,356
22:57:35.409,240,526,595,313,643,730,415,305,613,455,226,570,619,263,-8016,-9980,1884,3762,3155,-855
22:57:35.426,232,523,589,307,638,722,401,298,611,456,225,553,611,260,-4876,-4568,2628,363,-739,-338
22:57:35.442,231,516,584,303,632,720,394,298,609,458,224,551,610,257,-5080,-5616,5328,2006,-2092,842
22:57:35.459,231,516,584,303,632,720,394,298,609,458,224,551,610,257,-5080,-5616,5328,2006,-2092,842
22:57:35.484,231,516,584,303,632,720,394,298,609,458,224,551,610,257,-5080,-5616,5328,2006,-2092,842
22:57:35.501,231,512,578,300,630,718,389,298,604,455,222,547,613,257,-3488,-5860,6284,-1286,-3019,411
22:57:35.517,228,499,578,296,636,715,393,291,608,445,220,543,616,256,-3028,-9592,-1328,-3328,-4058,-558
22:57:35.550,229,497,578,296,635,715,389,291,610,443,221,544,614,255,-4044,-9104,-2552,-1857,-3805,-143
22:57:35.567,227,495,576,295,634,716,391,291,610,441,220,546,613,254,-3584,-9220,448,523,-3099,326
22:57:35.584,228,493,578,296,636,720,395,291,615,436,220,546,611,253,-2292,-8680,3780,1386,-2799,244
22:57:35.600,228,493,578,296,636,720,395,291,615,436,220,546,611,253,-2292,-8680,3780,1386,-2799,244
22:57:35.627,228,493,578,296,636,720,395,291,615,436,220,546,611,253,-2292,-8680,3780,1386,-2799,244
22:57:35.644,228,493,578,296,636,720,395,291,615,436,220,546,611,253,-2292,-8680,3780,1386,-2799,244
22:57:35.660,227,491,591,293,638,751,399,290,637,438,219,543,612,253,-3108,-7600,2548,-585,-2811,255
22:57:35.677,232,492,603,295,640,791,401,289,644,438,218,543,610,250,-4524,-7588,588,-1106,-3591,490
22:57:35.710,231,493,609,296,641,800,401,289,649,439,218,542,610,250,-3708,-7640,560,-1033,-4577,384
22:57:35.720,233,495,621,293,640,819,401,288,655,437,218,539,608,249,-3132,-7756,1512,-539,-4347,560
22:57:35.753,233,495,621,293,640,819,401,288,655,437,218,539,608,249,-3132,-7756,1512,-539,-4347,560
22:57:35.770,231,495,636,291,626,829,396,287,662,439,218,539,606,250,-3304,-6932,1664,271,-2894,538
